#
# Results on Wed, 10 Dec 2025 19:39:27 GMT
# USER AGENT: Mozilla/5.0 (Windows NT 10.0; Win64; x64) AppleWebKit/537.36 (KHTML, like Gecko) Chrome/143.0.0.0 Safari/537.36
# Design number was non-random = 1
#
# Columns below this comment are as follows:
# 1. Results reception time.
# 2. MD5 hash of participant's IP address.
# 3. Controller name.
# 4. Order number of item.
# 5. Inner element number.
# 6. Label.
# 7. Latin Square Group.
# 8. PennElementType.
# 9. PennElementName.
# 10. Parameter.
# 11. Value.
# 12. EventTime.
# 13. Comments.
1765395567,618bcedf122a192c145d0a0bdebb976e,PennController,3,0,Setup,NULL,PennController,0,_Header_,Start,1765394771240,NULL
1765395567,618bcedf122a192c145d0a0bdebb976e,PennController,3,0,Setup,NULL,PennController,0,_Trial_,Start,1765394771240,NULL
1765395567,618bcedf122a192c145d0a0bdebb976e,PennController,3,0,Setup,NULL,PennController,0,_Trial_,End,1765394771241,NULL
1765395567,618bcedf122a192c145d0a0bdebb976e,PennController,3,0,Setup,NULL,Var,PasswordID1,Final,5486634077,1765394771241,Value at the end of the trial
1765395567,618bcedf122a192c145d0a0bdebb976e,PennController,3,0,Setup,NULL,Var,Part_ID,Final,x7r0WCXblZ1Q1Bg,1765394771241,Value at the end of the trial
1765395567,618bcedf122a192c145d0a0bdebb976e,PennController,3,0,Setup,NULL,PennController,0,_Header_,End,1765394771241,NULL
1765395567,618bcedf122a192c145d0a0bdebb976e,PennController,4,0,Instruction,NULL,PennController,1,_Header_,End,1765394771243,NULL
1765395567,618bcedf122a192c145d0a0bdebb976e,PennController,4,0,Instruction,NULL,PennController,1,_Header_,Start,1765394771243,NULL
1765395567,618bcedf122a192c145d0a0bdebb976e,PennController,4,0,Instruction,NULL,PennController,1,_Trial_,Start,1765394771243,NULL
1765395567,618bcedf122a192c145d0a0bdebb976e,PennController,4,0,Instruction,NULL,PennController,1,_Trial_,End,1765394782081,NULL
# 13. Age.
# 14. Gender.
# 15. NativeLanguage.
# 16. DominantLanguage.
# 17. ForeignLanguage.
# 18. School.
# 19. Comments.
1765395567,618bcedf122a192c145d0a0bdebb976e,PennController,5,0,demografik,NULL,PennController,2,_Header_,End,1765394782083,,,,,,,NULL
1765395567,618bcedf122a192c145d0a0bdebb976e,PennController,5,0,demografik,NULL,PennController,2,_Header_,Start,1765394782083,,,,,,,NULL
1765395567,618bcedf122a192c145d0a0bdebb976e,PennController,5,0,demografik,NULL,PennController,2,_Trial_,Start,1765394782083,,,,,,,NULL
1765395567,618bcedf122a192c145d0a0bdebb976e,PennController,5,0,demografik,NULL,TextInput,Age,First,,1765394784389,,,,,,,2
1765395567,618bcedf122a192c145d0a0bdebb976e,PennController,5,0,demografik,NULL,TextInput,Gender,First,,1765394786666,,,,,,,k
1765395567,618bcedf122a192c145d0a0bdebb976e,PennController,5,0,demografik,NULL,TextInput,NativeLanguage,First,,1765394789288,,,,,,,t
1765395567,618bcedf122a192c145d0a0bdebb976e,PennController,5,0,demografik,NULL,TextInput,ForeignLanguage,First,,1765394795720,,,,,,,i
1765395567,618bcedf122a192c145d0a0bdebb976e,PennController,5,0,demografik,NULL,TextInput,School,First,,1765394801165,,,,,,,l
1765395567,618bcedf122a192c145d0a0bdebb976e,PennController,5,0,demografik,NULL,TextInput,Age,Final,22,1765394803817,,,,,,,NULL
1765395567,618bcedf122a192c145d0a0bdebb976e,PennController,5,0,demografik,NULL,TextInput,ForeignLanguage,Final,ingilizce,1765394803818,,,,,,,NULL
1765395567,618bcedf122a192c145d0a0bdebb976e,PennController,5,0,demografik,NULL,TextInput,DominantLanguage,Final,,1765394803818,,,,,,,NULL
1765395567,618bcedf122a192c145d0a0bdebb976e,PennController,5,0,demografik,NULL,TextInput,NativeLanguage,Final,türkçe,1765394803818,,,,,,,NULL
1765395567,618bcedf122a192c145d0a0bdebb976e,PennController,5,0,demografik,NULL,TextInput,Gender,Final,kadın,1765394803818,,,,,,,NULL
1765395567,618bcedf122a192c145d0a0bdebb976e,PennController,5,0,demografik,NULL,TextInput,School,Final,lise,1765394803819,,,,,,,NULL
1765395567,618bcedf122a192c145d0a0bdebb976e,PennController,5,0,demografik,NULL,PennController,2,_Trial_,End,1765394803820,,,,,,,NULL
# 13. Comments.
1765395567,618bcedf122a192c145d0a0bdebb976e,PennController,6,0,Instruction2,NULL,PennController,3,_Header_,End,1765394803822,NULL
1765395567,618bcedf122a192c145d0a0bdebb976e,PennController,6,0,Instruction2,NULL,PennController,3,_Header_,Start,1765394803822,NULL
1765395567,618bcedf122a192c145d0a0bdebb976e,PennController,6,0,Instruction2,NULL,PennController,3,_Trial_,Start,1765394803822,NULL
1765395567,618bcedf122a192c145d0a0bdebb976e,PennController,6,0,Instruction2,NULL,PennController,3,_Trial_,End,1765394811035,NULL
# 13. Part_ID.
# 14. Item_set.
# 15. Order.
# 16. Item_Type.
# 17. Correct_Resp.
# 18. Response.
# 19. ReactionTime.
# 20. Sentence.
# 21. Comments.
1765395567,618bcedf122a192c145d0a0bdebb976e,PennController,7,0,Practice,NULL,PennController,7,_Header_,End,1765394811037,x7r0WCXblZ1Q1Bg,Practice1,0,Practice,Yes,Yes,5135,Ayşe küs olduğu arkadaşının düğüne gelmesine şaşırdı.,NULL
1765395567,618bcedf122a192c145d0a0bdebb976e,PennController,7,0,Practice,NULL,PennController,7,_Header_,Start,1765394811037,x7r0WCXblZ1Q1Bg,Practice1,0,Practice,Yes,Yes,5135,Ayşe küs olduğu arkadaşının düğüne gelmesine şaşırdı.,NULL
1765395567,618bcedf122a192c145d0a0bdebb976e,PennController,7,0,Practice,NULL,PennController,7,_Trial_,Start,1765394811037,x7r0WCXblZ1Q1Bg,Practice1,0,Practice,Yes,Yes,5135,Ayşe küs olduğu arkadaşının düğüne gelmesine şaşırdı.,NULL
1765395567,618bcedf122a192c145d0a0bdebb976e,PennController,7,0,Practice,NULL,Key,response,PressedKey,F,1765394819435,x7r0WCXblZ1Q1Bg,Practice1,0,Practice,Yes,Yes,5135,Ayşe küs olduğu arkadaşının düğüne gelmesine şaşırdı.,Wait success
1765395567,618bcedf122a192c145d0a0bdebb976e,PennController,7,0,Practice,NULL,Key,continue3,PressedKey, ,1765394822021,x7r0WCXblZ1Q1Bg,Practice1,0,Practice,Yes,Yes,5135,Ayşe küs olduğu arkadaşının düğüne gelmesine şaşırdı.,Wait success
1765395567,618bcedf122a192c145d0a0bdebb976e,PennController,7,0,Practice,NULL,PennController,7,_Trial_,End,1765394822023,x7r0WCXblZ1Q1Bg,Practice1,0,Practice,Yes,Yes,5135,Ayşe küs olduğu arkadaşının düğüne gelmesine şaşırdı.,NULL
1765395567,618bcedf122a192c145d0a0bdebb976e,PennController,8,0,Practice,NULL,PennController,8,_Header_,End,1765394822025,x7r0WCXblZ1Q1Bg,Practice2,0,Practice,No,No,2678,Biz hiçbir yaz ayında dondurma yemeyi severiz.,NULL
1765395567,618bcedf122a192c145d0a0bdebb976e,PennController,8,0,Practice,NULL,PennController,8,_Header_,Start,1765394822025,x7r0WCXblZ1Q1Bg,Practice2,0,Practice,No,No,2678,Biz hiçbir yaz ayında dondurma yemeyi severiz.,NULL
1765395567,618bcedf122a192c145d0a0bdebb976e,PennController,8,0,Practice,NULL,PennController,8,_Trial_,Start,1765394822025,x7r0WCXblZ1Q1Bg,Practice2,0,Practice,No,No,2678,Biz hiçbir yaz ayında dondurma yemeyi severiz.,NULL
1765395567,618bcedf122a192c145d0a0bdebb976e,PennController,8,0,Practice,NULL,Key,response,PressedKey,J,1765394828016,x7r0WCXblZ1Q1Bg,Practice2,0,Practice,No,No,2678,Biz hiçbir yaz ayında dondurma yemeyi severiz.,Wait success
1765395567,618bcedf122a192c145d0a0bdebb976e,PennController,8,0,Practice,NULL,Key,continue,PressedKey, ,1765394833204,x7r0WCXblZ1Q1Bg,Practice2,0,Practice,No,No,2678,Biz hiçbir yaz ayında dondurma yemeyi severiz.,Wait success
1765395567,618bcedf122a192c145d0a0bdebb976e,PennController,8,0,Practice,NULL,PennController,8,_Trial_,End,1765394833206,x7r0WCXblZ1Q1Bg,Practice2,0,Practice,No,No,2678,Biz hiçbir yaz ayında dondurma yemeyi severiz.,NULL
1765395567,618bcedf122a192c145d0a0bdebb976e,PennController,9,0,Practice,NULL,PennController,9,_Header_,Start,1765394833207,x7r0WCXblZ1Q1Bg,Practice3,0,Practice,No,No,2009,Esra hasta kediyi yarın sabah veterinere götürdü.,NULL
1765395567,618bcedf122a192c145d0a0bdebb976e,PennController,9,0,Practice,NULL,PennController,9,_Trial_,Start,1765394833207,x7r0WCXblZ1Q1Bg,Practice3,0,Practice,No,No,2009,Esra hasta kediyi yarın sabah veterinere götürdü.,NULL
1765395567,618bcedf122a192c145d0a0bdebb976e,PennController,9,0,Practice,NULL,PennController,9,_Header_,End,1765394833208,x7r0WCXblZ1Q1Bg,Practice3,0,Practice,No,No,2009,Esra hasta kediyi yarın sabah veterinere götürdü.,NULL
1765395567,618bcedf122a192c145d0a0bdebb976e,PennController,9,0,Practice,NULL,Key,response,PressedKey,J,1765394838527,x7r0WCXblZ1Q1Bg,Practice3,0,Practice,No,No,2009,Esra hasta kediyi yarın sabah veterinere götürdü.,Wait success
1765395567,618bcedf122a192c145d0a0bdebb976e,PennController,9,0,Practice,NULL,Key,continue,PressedKey, ,1765394840358,x7r0WCXblZ1Q1Bg,Practice3,0,Practice,No,No,2009,Esra hasta kediyi yarın sabah veterinere götürdü.,Wait success
1765395567,618bcedf122a192c145d0a0bdebb976e,PennController,9,0,Practice,NULL,PennController,9,_Trial_,End,1765394840360,x7r0WCXblZ1Q1Bg,Practice3,0,Practice,No,No,2009,Esra hasta kediyi yarın sabah veterinere götürdü.,NULL
1765395567,618bcedf122a192c145d0a0bdebb976e,PennController,10,0,Practice,NULL,PennController,10,_Header_,End,1765394840362,x7r0WCXblZ1Q1Bg,Practice4,0,Practice,Yes,Yes,3518,Mesut uçak yolculuklarında çok tedirgin oluyor.,NULL
1765395567,618bcedf122a192c145d0a0bdebb976e,PennController,10,0,Practice,NULL,PennController,10,_Header_,Start,1765394840362,x7r0WCXblZ1Q1Bg,Practice4,0,Practice,Yes,Yes,3518,Mesut uçak yolculuklarında çok tedirgin oluyor.,NULL
1765395567,618bcedf122a192c145d0a0bdebb976e,PennController,10,0,Practice,NULL,PennController,10,_Trial_,Start,1765394840362,x7r0WCXblZ1Q1Bg,Practice4,0,Practice,Yes,Yes,3518,Mesut uçak yolculuklarında çok tedirgin oluyor.,NULL
1765395567,618bcedf122a192c145d0a0bdebb976e,PennController,10,0,Practice,NULL,Key,response,PressedKey,F,1765394846765,x7r0WCXblZ1Q1Bg,Practice4,0,Practice,Yes,Yes,3518,Mesut uçak yolculuklarında çok tedirgin oluyor.,Wait success
1765395567,618bcedf122a192c145d0a0bdebb976e,PennController,10,0,Practice,NULL,Key,continue3,PressedKey, ,1765394849815,x7r0WCXblZ1Q1Bg,Practice4,0,Practice,Yes,Yes,3518,Mesut uçak yolculuklarında çok tedirgin oluyor.,Wait success
1765395567,618bcedf122a192c145d0a0bdebb976e,PennController,10,0,Practice,NULL,PennController,10,_Trial_,End,1765394849816,x7r0WCXblZ1Q1Bg,Practice4,0,Practice,Yes,Yes,3518,Mesut uçak yolculuklarında çok tedirgin oluyor.,NULL
1765395567,618bcedf122a192c145d0a0bdebb976e,PennController,11,0,Practice,NULL,PennController,11,_Header_,Start,1765394849817,x7r0WCXblZ1Q1Bg,Practice5,0,Practice,Yes,Yes,1326,Görkem öğrencileri derslerin zorluğu hakkında uyardı.,NULL
1765395567,618bcedf122a192c145d0a0bdebb976e,PennController,11,0,Practice,NULL,PennController,11,_Trial_,Start,1765394849817,x7r0WCXblZ1Q1Bg,Practice5,0,Practice,Yes,Yes,1326,Görkem öğrencileri derslerin zorluğu hakkında uyardı.,NULL
1765395567,618bcedf122a192c145d0a0bdebb976e,PennController,11,0,Practice,NULL,PennController,11,_Header_,End,1765394849818,x7r0WCXblZ1Q1Bg,Practice5,0,Practice,Yes,Yes,1326,Görkem öğrencileri derslerin zorluğu hakkında uyardı.,NULL
1765395567,618bcedf122a192c145d0a0bdebb976e,PennController,11,0,Practice,NULL,Key,response,PressedKey,F,1765394854024,x7r0WCXblZ1Q1Bg,Practice5,0,Practice,Yes,Yes,1326,Görkem öğrencileri derslerin zorluğu hakkında uyardı.,Wait success
1765395567,618bcedf122a192c145d0a0bdebb976e,PennController,11,0,Practice,NULL,Key,continue3,PressedKey, ,1765394855949,x7r0WCXblZ1Q1Bg,Practice5,0,Practice,Yes,Yes,1326,Görkem öğrencileri derslerin zorluğu hakkında uyardı.,Wait success
1765395567,618bcedf122a192c145d0a0bdebb976e,PennController,11,0,Practice,NULL,PennController,11,_Trial_,End,1765394855950,x7r0WCXblZ1Q1Bg,Practice5,0,Practice,Yes,Yes,1326,Görkem öğrencileri derslerin zorluğu hakkında uyardı.,NULL
# 13. Comments.
1765395567,618bcedf122a192c145d0a0bdebb976e,PennController,12,0,break,NULL,PennController,4,_Header_,End,1765394855952,NULL
1765395567,618bcedf122a192c145d0a0bdebb976e,PennController,12,0,break,NULL,PennController,4,_Header_,Start,1765394855952,NULL
1765395567,618bcedf122a192c145d0a0bdebb976e,PennController,12,0,break,NULL,PennController,4,_Trial_,Start,1765394855952,NULL
1765395567,618bcedf122a192c145d0a0bdebb976e,PennController,12,0,break,NULL,PennController,4,_Trial_,End,1765394861843,NULL
# 13. Part_ID.
# 14. Item_set.
# 15. Order.
# 16. Item_Type.
# 17. Case.
# 18. Number.
# 19. Correct_Resp.
# 20. Response.
# 21. ReactionTime.
# 22. Group.
# 23. Sentence.
# 24. Comments.
1765395567,618bcedf122a192c145d0a0bdebb976e,PennController,47,0,critical,NULL,PennController,46,_Header_,Start,1765394861844,x7r0WCXblZ1Q1Bg,35,1,filler,SG,SG,Yes,No_Response,3407,B,Teyzem pazara gitmeden kuzenimi bana emanet eder.,NULL
1765395567,618bcedf122a192c145d0a0bdebb976e,PennController,47,0,critical,NULL,PennController,46,_Trial_,Start,1765394861844,x7r0WCXblZ1Q1Bg,35,1,filler,SG,SG,Yes,No_Response,3407,B,Teyzem pazara gitmeden kuzenimi bana emanet eder.,NULL
1765395567,618bcedf122a192c145d0a0bdebb976e,PennController,47,0,critical,NULL,PennController,46,_Header_,End,1765394861845,x7r0WCXblZ1Q1Bg,35,1,filler,SG,SG,Yes,No_Response,3407,B,Teyzem pazara gitmeden kuzenimi bana emanet eder.,NULL
1765395567,618bcedf122a192c145d0a0bdebb976e,PennController,47,0,critical,NULL,Timer,time limit,Start,Start,1765394865516,x7r0WCXblZ1Q1Bg,35,1,filler,SG,SG,Yes,No_Response,3407,B,Teyzem pazara gitmeden kuzenimi bana emanet eder.,NULL
1765395567,618bcedf122a192c145d0a0bdebb976e,PennController,47,0,critical,NULL,Timer,time limit,End,End,1765394868518,x7r0WCXblZ1Q1Bg,35,1,filler,SG,SG,Yes,No_Response,3407,B,Teyzem pazara gitmeden kuzenimi bana emanet eder.,NULL
1765395567,618bcedf122a192c145d0a0bdebb976e,PennController,47,0,critical,NULL,PennController,46,_Trial_,End,1765394871433,x7r0WCXblZ1Q1Bg,35,1,filler,SG,SG,Yes,No_Response,3407,B,Teyzem pazara gitmeden kuzenimi bana emanet eder.,NULL
1765395567,618bcedf122a192c145d0a0bdebb976e,PennController,49,0,critical,NULL,PennController,48,_Header_,End,1765394871434,x7r0WCXblZ1Q1Bg,37,2,filler,SG,SG,Yes,Yes,579,B,Menajer dizi setindeki bitmeyen kavgalardan bunalmıştır muhtemelen.,NULL
1765395567,618bcedf122a192c145d0a0bdebb976e,PennController,49,0,critical,NULL,PennController,48,_Header_,Start,1765394871434,x7r0WCXblZ1Q1Bg,37,2,filler,SG,SG,Yes,Yes,579,B,Menajer dizi setindeki bitmeyen kavgalardan bunalmıştır muhtemelen.,NULL
1765395567,618bcedf122a192c145d0a0bdebb976e,PennController,49,0,critical,NULL,PennController,48,_Trial_,Start,1765394871434,x7r0WCXblZ1Q1Bg,37,2,filler,SG,SG,Yes,Yes,579,B,Menajer dizi setindeki bitmeyen kavgalardan bunalmıştır muhtemelen.,NULL
1765395567,618bcedf122a192c145d0a0bdebb976e,PennController,49,0,critical,NULL,Timer,time limit,Start,Start,1765394875094,x7r0WCXblZ1Q1Bg,37,2,filler,SG,SG,Yes,Yes,579,B,Menajer dizi setindeki bitmeyen kavgalardan bunalmıştır muhtemelen.,NULL
1765395567,618bcedf122a192c145d0a0bdebb976e,PennController,49,0,critical,NULL,Key,response,PressedKey,F,1765394875269,x7r0WCXblZ1Q1Bg,37,2,filler,SG,SG,Yes,Yes,579,B,Menajer dizi setindeki bitmeyen kavgalardan bunalmıştır muhtemelen.,NULL
1765395567,618bcedf122a192c145d0a0bdebb976e,PennController,49,0,critical,NULL,Timer,time limit,End,End,1765394875269,x7r0WCXblZ1Q1Bg,37,2,filler,SG,SG,Yes,Yes,579,B,Menajer dizi setindeki bitmeyen kavgalardan bunalmıştır muhtemelen.,NULL
1765395567,618bcedf122a192c145d0a0bdebb976e,PennController,49,0,critical,NULL,PennController,48,_Trial_,End,1765394875270,x7r0WCXblZ1Q1Bg,37,2,filler,SG,SG,Yes,Yes,579,B,Menajer dizi setindeki bitmeyen kavgalardan bunalmıştır muhtemelen.,NULL
1765395567,618bcedf122a192c145d0a0bdebb976e,PennController,135,0,critical,NULL,PennController,134,_Header_,Start,1765394875271,x7r0WCXblZ1Q1Bg,27,3,filler,PL,PL,Yes,Yes,2894,B,Avrupalılar Hindistan'ı ararken yanlışlıkla Amerika'yı keşfettiler.,NULL
1765395567,618bcedf122a192c145d0a0bdebb976e,PennController,135,0,critical,NULL,PennController,134,_Trial_,Start,1765394875271,x7r0WCXblZ1Q1Bg,27,3,filler,PL,PL,Yes,Yes,2894,B,Avrupalılar Hindistan'ı ararken yanlışlıkla Amerika'yı keşfettiler.,NULL
1765395567,618bcedf122a192c145d0a0bdebb976e,PennController,135,0,critical,NULL,PennController,134,_Header_,End,1765394875272,x7r0WCXblZ1Q1Bg,27,3,filler,PL,PL,Yes,Yes,2894,B,Avrupalılar Hindistan'ı ararken yanlışlıkla Amerika'yı keşfettiler.,NULL
1765395567,618bcedf122a192c145d0a0bdebb976e,PennController,135,0,critical,NULL,Timer,time limit,Start,Start,1765394878574,x7r0WCXblZ1Q1Bg,27,3,filler,PL,PL,Yes,Yes,2894,B,Avrupalılar Hindistan'ı ararken yanlışlıkla Amerika'yı keşfettiler.,NULL
1765395567,618bcedf122a192c145d0a0bdebb976e,PennController,135,0,critical,NULL,Key,response,PressedKey,F,1765394881060,x7r0WCXblZ1Q1Bg,27,3,filler,PL,PL,Yes,Yes,2894,B,Avrupalılar Hindistan'ı ararken yanlışlıkla Amerika'yı keşfettiler.,NULL
1765395567,618bcedf122a192c145d0a0bdebb976e,PennController,135,0,critical,NULL,Timer,time limit,End,End,1765394881060,x7r0WCXblZ1Q1Bg,27,3,filler,PL,PL,Yes,Yes,2894,B,Avrupalılar Hindistan'ı ararken yanlışlıkla Amerika'yı keşfettiler.,NULL
1765395567,618bcedf122a192c145d0a0bdebb976e,PennController,135,0,critical,NULL,PennController,134,_Trial_,End,1765394881061,x7r0WCXblZ1Q1Bg,27,3,filler,PL,PL,Yes,Yes,2894,B,Avrupalılar Hindistan'ı ararken yanlışlıkla Amerika'yı keşfettiler.,NULL
1765395567,618bcedf122a192c145d0a0bdebb976e,PennController,13,0,critical,NULL,PennController,12,_Header_,End,1765394881062,x7r0WCXblZ1Q1Bg,1,4,experimental,gen,attractorMatch,No,No,1061,B,Göçmenlerin sözcüsü geçen hafta protestoda aralıksız bağırdılar.,NULL
1765395567,618bcedf122a192c145d0a0bdebb976e,PennController,13,0,critical,NULL,PennController,12,_Header_,Start,1765394881062,x7r0WCXblZ1Q1Bg,1,4,experimental,gen,attractorMatch,No,No,1061,B,Göçmenlerin sözcüsü geçen hafta protestoda aralıksız bağırdılar.,NULL
1765395567,618bcedf122a192c145d0a0bdebb976e,PennController,13,0,critical,NULL,PennController,12,_Trial_,Start,1765394881062,x7r0WCXblZ1Q1Bg,1,4,experimental,gen,attractorMatch,No,No,1061,B,Göçmenlerin sözcüsü geçen hafta protestoda aralıksız bağırdılar.,NULL
1765395567,618bcedf122a192c145d0a0bdebb976e,PennController,13,0,critical,NULL,Timer,time limit,Start,Start,1765394884755,x7r0WCXblZ1Q1Bg,1,4,experimental,gen,attractorMatch,No,No,1061,B,Göçmenlerin sözcüsü geçen hafta protestoda aralıksız bağırdılar.,NULL
1765395567,618bcedf122a192c145d0a0bdebb976e,PennController,13,0,critical,NULL,Key,response,PressedKey,J,1765394885408,x7r0WCXblZ1Q1Bg,1,4,experimental,gen,attractorMatch,No,No,1061,B,Göçmenlerin sözcüsü geçen hafta protestoda aralıksız bağırdılar.,NULL
1765395567,618bcedf122a192c145d0a0bdebb976e,PennController,13,0,critical,NULL,Timer,time limit,End,End,1765394885408,x7r0WCXblZ1Q1Bg,1,4,experimental,gen,attractorMatch,No,No,1061,B,Göçmenlerin sözcüsü geçen hafta protestoda aralıksız bağırdılar.,NULL
1765395567,618bcedf122a192c145d0a0bdebb976e,PennController,13,0,critical,NULL,PennController,12,_Trial_,End,1765394885409,x7r0WCXblZ1Q1Bg,1,4,experimental,gen,attractorMatch,No,No,1061,B,Göçmenlerin sözcüsü geçen hafta protestoda aralıksız bağırdılar.,NULL
1765395567,618bcedf122a192c145d0a0bdebb976e,PennController,92,0,critical,NULL,PennController,91,_Header_,End,1765394885411,x7r0WCXblZ1Q1Bg,32,5,filler,PL,PL,Yes,Yes,496,B,Şairler seyirci tarafından beğenilmeyince üzüldüler.,NULL
1765395567,618bcedf122a192c145d0a0bdebb976e,PennController,92,0,critical,NULL,PennController,91,_Header_,Start,1765394885411,x7r0WCXblZ1Q1Bg,32,5,filler,PL,PL,Yes,Yes,496,B,Şairler seyirci tarafından beğenilmeyince üzüldüler.,NULL
1765395567,618bcedf122a192c145d0a0bdebb976e,PennController,92,0,critical,NULL,PennController,91,_Trial_,Start,1765394885411,x7r0WCXblZ1Q1Bg,32,5,filler,PL,PL,Yes,Yes,496,B,Şairler seyirci tarafından beğenilmeyince üzüldüler.,NULL
1765395567,618bcedf122a192c145d0a0bdebb976e,PennController,92,0,critical,NULL,Timer,time limit,Start,Start,1765394888285,x7r0WCXblZ1Q1Bg,32,5,filler,PL,PL,Yes,Yes,496,B,Şairler seyirci tarafından beğenilmeyince üzüldüler.,NULL
1765395567,618bcedf122a192c145d0a0bdebb976e,PennController,92,0,critical,NULL,Key,response,PressedKey,F,1765394888374,x7r0WCXblZ1Q1Bg,32,5,filler,PL,PL,Yes,Yes,496,B,Şairler seyirci tarafından beğenilmeyince üzüldüler.,NULL
1765395567,618bcedf122a192c145d0a0bdebb976e,PennController,92,0,critical,NULL,Timer,time limit,End,End,1765394888374,x7r0WCXblZ1Q1Bg,32,5,filler,PL,PL,Yes,Yes,496,B,Şairler seyirci tarafından beğenilmeyince üzüldüler.,NULL
1765395567,618bcedf122a192c145d0a0bdebb976e,PennController,92,0,critical,NULL,PennController,91,_Trial_,End,1765394888375,x7r0WCXblZ1Q1Bg,32,5,filler,PL,PL,Yes,Yes,496,B,Şairler seyirci tarafından beğenilmeyince üzüldüler.,NULL
1765395567,618bcedf122a192c145d0a0bdebb976e,PennController,138,0,critical,NULL,PennController,137,_Trial_,Start,1765394888376,x7r0WCXblZ1Q1Bg,30,6,filler,PL,PL,Yes,Yes,435,B,Teknisyenler hızlı çalıştıklarından işe tekrar çağırıldılar.,NULL
1765395567,618bcedf122a192c145d0a0bdebb976e,PennController,138,0,critical,NULL,PennController,137,_Header_,End,1765394888377,x7r0WCXblZ1Q1Bg,30,6,filler,PL,PL,Yes,Yes,435,B,Teknisyenler hızlı çalıştıklarından işe tekrar çağırıldılar.,NULL
1765395567,618bcedf122a192c145d0a0bdebb976e,PennController,138,0,critical,NULL,PennController,137,_Header_,Start,1765394888377,x7r0WCXblZ1Q1Bg,30,6,filler,PL,PL,Yes,Yes,435,B,Teknisyenler hızlı çalıştıklarından işe tekrar çağırıldılar.,NULL
1765395567,618bcedf122a192c145d0a0bdebb976e,PennController,138,0,critical,NULL,Timer,time limit,Start,Start,1765394891632,x7r0WCXblZ1Q1Bg,30,6,filler,PL,PL,Yes,Yes,435,B,Teknisyenler hızlı çalıştıklarından işe tekrar çağırıldılar.,NULL
1765395567,618bcedf122a192c145d0a0bdebb976e,PennController,138,0,critical,NULL,Key,response,PressedKey,F,1765394891661,x7r0WCXblZ1Q1Bg,30,6,filler,PL,PL,Yes,Yes,435,B,Teknisyenler hızlı çalıştıklarından işe tekrar çağırıldılar.,NULL
1765395567,618bcedf122a192c145d0a0bdebb976e,PennController,138,0,critical,NULL,Timer,time limit,End,End,1765394891661,x7r0WCXblZ1Q1Bg,30,6,filler,PL,PL,Yes,Yes,435,B,Teknisyenler hızlı çalıştıklarından işe tekrar çağırıldılar.,NULL
1765395567,618bcedf122a192c145d0a0bdebb976e,PennController,138,0,critical,NULL,PennController,137,_Trial_,End,1765394891663,x7r0WCXblZ1Q1Bg,30,6,filler,PL,PL,Yes,Yes,435,B,Teknisyenler hızlı çalıştıklarından işe tekrar çağırıldılar.,NULL
1765395567,618bcedf122a192c145d0a0bdebb976e,PennController,83,0,critical,NULL,PennController,82,_Header_,End,1765394891664,x7r0WCXblZ1Q1Bg,71,7,filler,PL,SG,No,No,447,B,Yetkililer kantindeki kahveye bir  zam daha getirilmedi.,NULL
1765395567,618bcedf122a192c145d0a0bdebb976e,PennController,83,0,critical,NULL,PennController,82,_Header_,Start,1765394891664,x7r0WCXblZ1Q1Bg,71,7,filler,PL,SG,No,No,447,B,Yetkililer kantindeki kahveye bir  zam daha getirilmedi.,NULL
1765395567,618bcedf122a192c145d0a0bdebb976e,PennController,83,0,critical,NULL,PennController,82,_Trial_,Start,1765394891664,x7r0WCXblZ1Q1Bg,71,7,filler,PL,SG,No,No,447,B,Yetkililer kantindeki kahveye bir  zam daha getirilmedi.,NULL
1765395567,618bcedf122a192c145d0a0bdebb976e,PennController,83,0,critical,NULL,Timer,time limit,Start,Start,1765394895360,x7r0WCXblZ1Q1Bg,71,7,filler,PL,SG,No,No,447,B,Yetkililer kantindeki kahveye bir  zam daha getirilmedi.,NULL
1765395567,618bcedf122a192c145d0a0bdebb976e,PennController,83,0,critical,NULL,PennController,82,_Trial_,End,1765394895405,x7r0WCXblZ1Q1Bg,71,7,filler,PL,SG,No,No,447,B,Yetkililer kantindeki kahveye bir  zam daha getirilmedi.,NULL
1765395567,618bcedf122a192c145d0a0bdebb976e,PennController,83,0,critical,NULL,Key,response,PressedKey,J,1765394895405,x7r0WCXblZ1Q1Bg,71,7,filler,PL,SG,No,No,447,B,Yetkililer kantindeki kahveye bir  zam daha getirilmedi.,NULL
1765395567,618bcedf122a192c145d0a0bdebb976e,PennController,83,0,critical,NULL,Timer,time limit,End,End,1765394895405,x7r0WCXblZ1Q1Bg,71,7,filler,PL,SG,No,No,447,B,Yetkililer kantindeki kahveye bir  zam daha getirilmedi.,NULL
1765395567,618bcedf122a192c145d0a0bdebb976e,PennController,78,0,critical,NULL,PennController,77,_Header_,Start,1765394895407,x7r0WCXblZ1Q1Bg,66,8,filler,PL,SG,No,No,1806,B,Gazeteciler izleyicinin hemen sonra sahneye çıkılacak.,NULL
1765395567,618bcedf122a192c145d0a0bdebb976e,PennController,78,0,critical,NULL,PennController,77,_Trial_,Start,1765394895407,x7r0WCXblZ1Q1Bg,66,8,filler,PL,SG,No,No,1806,B,Gazeteciler izleyicinin hemen sonra sahneye çıkılacak.,NULL
1765395567,618bcedf122a192c145d0a0bdebb976e,PennController,78,0,critical,NULL,PennController,77,_Header_,End,1765394895408,x7r0WCXblZ1Q1Bg,66,8,filler,PL,SG,No,No,1806,B,Gazeteciler izleyicinin hemen sonra sahneye çıkılacak.,NULL
1765395567,618bcedf122a192c145d0a0bdebb976e,PennController,78,0,critical,NULL,Timer,time limit,Start,Start,1765394898697,x7r0WCXblZ1Q1Bg,66,8,filler,PL,SG,No,No,1806,B,Gazeteciler izleyicinin hemen sonra sahneye çıkılacak.,NULL
1765395567,618bcedf122a192c145d0a0bdebb976e,PennController,78,0,critical,NULL,Key,response,PressedKey,J,1765394900097,x7r0WCXblZ1Q1Bg,66,8,filler,PL,SG,No,No,1806,B,Gazeteciler izleyicinin hemen sonra sahneye çıkılacak.,NULL
1765395567,618bcedf122a192c145d0a0bdebb976e,PennController,78,0,critical,NULL,Timer,time limit,End,End,1765394900097,x7r0WCXblZ1Q1Bg,66,8,filler,PL,SG,No,No,1806,B,Gazeteciler izleyicinin hemen sonra sahneye çıkılacak.,NULL
1765395567,618bcedf122a192c145d0a0bdebb976e,PennController,78,0,critical,NULL,PennController,77,_Trial_,End,1765394900098,x7r0WCXblZ1Q1Bg,66,8,filler,PL,SG,No,No,1806,B,Gazeteciler izleyicinin hemen sonra sahneye çıkılacak.,NULL
1765395567,618bcedf122a192c145d0a0bdebb976e,PennController,143,0,critical,NULL,PennController,142,_Header_,End,1765394900099,x7r0WCXblZ1Q1Bg,35,9,filler,SG,SG,Yes,Yes,497,B,Teyzem pazara gitmeden kuzenimi bana emanet eder.,NULL
1765395567,618bcedf122a192c145d0a0bdebb976e,PennController,143,0,critical,NULL,PennController,142,_Header_,Start,1765394900099,x7r0WCXblZ1Q1Bg,35,9,filler,SG,SG,Yes,Yes,497,B,Teyzem pazara gitmeden kuzenimi bana emanet eder.,NULL
1765395567,618bcedf122a192c145d0a0bdebb976e,PennController,143,0,critical,NULL,PennController,142,_Trial_,Start,1765394900099,x7r0WCXblZ1Q1Bg,35,9,filler,SG,SG,Yes,Yes,497,B,Teyzem pazara gitmeden kuzenimi bana emanet eder.,NULL
1765395567,618bcedf122a192c145d0a0bdebb976e,PennController,143,0,critical,NULL,Timer,time limit,Start,Start,1765394903792,x7r0WCXblZ1Q1Bg,35,9,filler,SG,SG,Yes,Yes,497,B,Teyzem pazara gitmeden kuzenimi bana emanet eder.,NULL
1765395567,618bcedf122a192c145d0a0bdebb976e,PennController,143,0,critical,NULL,Key,response,PressedKey,F,1765394903882,x7r0WCXblZ1Q1Bg,35,9,filler,SG,SG,Yes,Yes,497,B,Teyzem pazara gitmeden kuzenimi bana emanet eder.,NULL
1765395567,618bcedf122a192c145d0a0bdebb976e,PennController,143,0,critical,NULL,Timer,time limit,End,End,1765394903883,x7r0WCXblZ1Q1Bg,35,9,filler,SG,SG,Yes,Yes,497,B,Teyzem pazara gitmeden kuzenimi bana emanet eder.,NULL
1765395567,618bcedf122a192c145d0a0bdebb976e,PennController,143,0,critical,NULL,PennController,142,_Trial_,End,1765394903884,x7r0WCXblZ1Q1Bg,35,9,filler,SG,SG,Yes,Yes,497,B,Teyzem pazara gitmeden kuzenimi bana emanet eder.,NULL
1765395567,618bcedf122a192c145d0a0bdebb976e,PennController,27,0,critical,NULL,PennController,26,_Header_,End,1765394903886,x7r0WCXblZ1Q1Bg,15,10,experimental,nom,attractorMatch,No,No,969,B,Engelliler bakıcısı ufacık zamma anlamsızca çok sevindiler.,NULL
1765395567,618bcedf122a192c145d0a0bdebb976e,PennController,27,0,critical,NULL,PennController,26,_Header_,Start,1765394903886,x7r0WCXblZ1Q1Bg,15,10,experimental,nom,attractorMatch,No,No,969,B,Engelliler bakıcısı ufacık zamma anlamsızca çok sevindiler.,NULL
1765395567,618bcedf122a192c145d0a0bdebb976e,PennController,27,0,critical,NULL,PennController,26,_Trial_,Start,1765394903886,x7r0WCXblZ1Q1Bg,15,10,experimental,nom,attractorMatch,No,No,969,B,Engelliler bakıcısı ufacık zamma anlamsızca çok sevindiler.,NULL
1765395567,618bcedf122a192c145d0a0bdebb976e,PennController,27,0,critical,NULL,Timer,time limit,Start,Start,1765394907591,x7r0WCXblZ1Q1Bg,15,10,experimental,nom,attractorMatch,No,No,969,B,Engelliler bakıcısı ufacık zamma anlamsızca çok sevindiler.,NULL
1765395567,618bcedf122a192c145d0a0bdebb976e,PennController,27,0,critical,NULL,Key,response,PressedKey,J,1765394908155,x7r0WCXblZ1Q1Bg,15,10,experimental,nom,attractorMatch,No,No,969,B,Engelliler bakıcısı ufacık zamma anlamsızca çok sevindiler.,NULL
1765395567,618bcedf122a192c145d0a0bdebb976e,PennController,27,0,critical,NULL,Timer,time limit,End,End,1765394908155,x7r0WCXblZ1Q1Bg,15,10,experimental,nom,attractorMatch,No,No,969,B,Engelliler bakıcısı ufacık zamma anlamsızca çok sevindiler.,NULL
1765395567,618bcedf122a192c145d0a0bdebb976e,PennController,27,0,critical,NULL,PennController,26,_Trial_,End,1765394908156,x7r0WCXblZ1Q1Bg,15,10,experimental,nom,attractorMatch,No,No,969,B,Engelliler bakıcısı ufacık zamma anlamsızca çok sevindiler.,NULL
1765395567,618bcedf122a192c145d0a0bdebb976e,PennController,79,0,critical,NULL,PennController,78,_Header_,End,1765394908158,x7r0WCXblZ1Q1Bg,67,11,filler,PL,SG,No,Yes,898,B,Veterinerler köpeğe dün itinayla bakacak sandım.,NULL
1765395567,618bcedf122a192c145d0a0bdebb976e,PennController,79,0,critical,NULL,PennController,78,_Header_,Start,1765394908158,x7r0WCXblZ1Q1Bg,67,11,filler,PL,SG,No,Yes,898,B,Veterinerler köpeğe dün itinayla bakacak sandım.,NULL
1765395567,618bcedf122a192c145d0a0bdebb976e,PennController,79,0,critical,NULL,PennController,78,_Trial_,Start,1765394908158,x7r0WCXblZ1Q1Bg,67,11,filler,PL,SG,No,Yes,898,B,Veterinerler köpeğe dün itinayla bakacak sandım.,NULL
1765395567,618bcedf122a192c145d0a0bdebb976e,PennController,79,0,critical,NULL,Timer,time limit,Start,Start,1765394911441,x7r0WCXblZ1Q1Bg,67,11,filler,PL,SG,No,Yes,898,B,Veterinerler köpeğe dün itinayla bakacak sandım.,NULL
1765395567,618bcedf122a192c145d0a0bdebb976e,PennController,79,0,critical,NULL,Key,response,PressedKey,F,1765394911933,x7r0WCXblZ1Q1Bg,67,11,filler,PL,SG,No,Yes,898,B,Veterinerler köpeğe dün itinayla bakacak sandım.,NULL
1765395567,618bcedf122a192c145d0a0bdebb976e,PennController,79,0,critical,NULL,Timer,time limit,End,End,1765394911933,x7r0WCXblZ1Q1Bg,67,11,filler,PL,SG,No,Yes,898,B,Veterinerler köpeğe dün itinayla bakacak sandım.,NULL
1765395567,618bcedf122a192c145d0a0bdebb976e,PennController,79,0,critical,NULL,PennController,78,_Trial_,End,1765394911934,x7r0WCXblZ1Q1Bg,67,11,filler,PL,SG,No,Yes,898,B,Veterinerler köpeğe dün itinayla bakacak sandım.,NULL
1765395567,618bcedf122a192c145d0a0bdebb976e,PennController,125,0,critical,NULL,PennController,124,_Header_,End,1765394911936,x7r0WCXblZ1Q1Bg,65,12,filler,PL,SG,No,Yes,1932,B,Öğrenciler fizik yüzünden sınıfta bıraktığına yeni öğrendim.,NULL
1765395567,618bcedf122a192c145d0a0bdebb976e,PennController,125,0,critical,NULL,PennController,124,_Header_,Start,1765394911936,x7r0WCXblZ1Q1Bg,65,12,filler,PL,SG,No,Yes,1932,B,Öğrenciler fizik yüzünden sınıfta bıraktığına yeni öğrendim.,NULL
1765395567,618bcedf122a192c145d0a0bdebb976e,PennController,125,0,critical,NULL,PennController,124,_Trial_,Start,1765394911936,x7r0WCXblZ1Q1Bg,65,12,filler,PL,SG,No,Yes,1932,B,Öğrenciler fizik yüzünden sınıfta bıraktığına yeni öğrendim.,NULL
1765395567,618bcedf122a192c145d0a0bdebb976e,PennController,125,0,critical,NULL,Timer,time limit,Start,Start,1765394915606,x7r0WCXblZ1Q1Bg,65,12,filler,PL,SG,No,Yes,1932,B,Öğrenciler fizik yüzünden sınıfta bıraktığına yeni öğrendim.,NULL
1765395567,618bcedf122a192c145d0a0bdebb976e,PennController,125,0,critical,NULL,PennController,124,_Trial_,End,1765394917132,x7r0WCXblZ1Q1Bg,65,12,filler,PL,SG,No,Yes,1932,B,Öğrenciler fizik yüzünden sınıfta bıraktığına yeni öğrendim.,NULL
1765395567,618bcedf122a192c145d0a0bdebb976e,PennController,125,0,critical,NULL,Key,response,PressedKey,F,1765394917132,x7r0WCXblZ1Q1Bg,65,12,filler,PL,SG,No,Yes,1932,B,Öğrenciler fizik yüzünden sınıfta bıraktığına yeni öğrendim.,NULL
1765395567,618bcedf122a192c145d0a0bdebb976e,PennController,125,0,critical,NULL,Timer,time limit,End,End,1765394917132,x7r0WCXblZ1Q1Bg,65,12,filler,PL,SG,No,Yes,1932,B,Öğrenciler fizik yüzünden sınıfta bıraktığına yeni öğrendim.,NULL
1765395567,618bcedf122a192c145d0a0bdebb976e,PennController,32,0,critical,NULL,PennController,31,_Header_,End,1765394917133,x7r0WCXblZ1Q1Bg,20,13,experimental,nom,targetMatch,Yes,Yes,1208,B,Yazılımcı direktörleri daha etkili bir özet yazdılar.,NULL
1765395567,618bcedf122a192c145d0a0bdebb976e,PennController,32,0,critical,NULL,PennController,31,_Header_,Start,1765394917133,x7r0WCXblZ1Q1Bg,20,13,experimental,nom,targetMatch,Yes,Yes,1208,B,Yazılımcı direktörleri daha etkili bir özet yazdılar.,NULL
1765395567,618bcedf122a192c145d0a0bdebb976e,PennController,32,0,critical,NULL,PennController,31,_Trial_,Start,1765394917133,x7r0WCXblZ1Q1Bg,20,13,experimental,nom,targetMatch,Yes,Yes,1208,B,Yazılımcı direktörleri daha etkili bir özet yazdılar.,NULL
1765395567,618bcedf122a192c145d0a0bdebb976e,PennController,32,0,critical,NULL,Timer,time limit,Start,Start,1765394920822,x7r0WCXblZ1Q1Bg,20,13,experimental,nom,targetMatch,Yes,Yes,1208,B,Yazılımcı direktörleri daha etkili bir özet yazdılar.,NULL
1765395567,618bcedf122a192c145d0a0bdebb976e,PennController,32,0,critical,NULL,Key,response,PressedKey,F,1765394921622,x7r0WCXblZ1Q1Bg,20,13,experimental,nom,targetMatch,Yes,Yes,1208,B,Yazılımcı direktörleri daha etkili bir özet yazdılar.,NULL
1765395567,618bcedf122a192c145d0a0bdebb976e,PennController,32,0,critical,NULL,Timer,time limit,End,End,1765394921622,x7r0WCXblZ1Q1Bg,20,13,experimental,nom,targetMatch,Yes,Yes,1208,B,Yazılımcı direktörleri daha etkili bir özet yazdılar.,NULL
1765395567,618bcedf122a192c145d0a0bdebb976e,PennController,32,0,critical,NULL,PennController,31,_Trial_,End,1765394921623,x7r0WCXblZ1Q1Bg,20,13,experimental,nom,targetMatch,Yes,Yes,1208,B,Yazılımcı direktörleri daha etkili bir özet yazdılar.,NULL
1765395567,618bcedf122a192c145d0a0bdebb976e,PennController,30,0,critical,NULL,PennController,29,_Header_,Start,1765394921625,x7r0WCXblZ1Q1Bg,18,14,experimental,nom,targetMatch,Yes,Yes,1651,B,İşçi sorumluları soğuk kış havasından ötürü hastalandılar.,NULL
1765395567,618bcedf122a192c145d0a0bdebb976e,PennController,30,0,critical,NULL,PennController,29,_Trial_,Start,1765394921625,x7r0WCXblZ1Q1Bg,18,14,experimental,nom,targetMatch,Yes,Yes,1651,B,İşçi sorumluları soğuk kış havasından ötürü hastalandılar.,NULL
1765395567,618bcedf122a192c145d0a0bdebb976e,PennController,30,0,critical,NULL,PennController,29,_Header_,End,1765394921626,x7r0WCXblZ1Q1Bg,18,14,experimental,nom,targetMatch,Yes,Yes,1651,B,İşçi sorumluları soğuk kış havasından ötürü hastalandılar.,NULL
1765395567,618bcedf122a192c145d0a0bdebb976e,PennController,30,0,critical,NULL,Timer,time limit,Start,Start,1765394925334,x7r0WCXblZ1Q1Bg,18,14,experimental,nom,targetMatch,Yes,Yes,1651,B,İşçi sorumluları soğuk kış havasından ötürü hastalandılar.,NULL
1765395567,618bcedf122a192c145d0a0bdebb976e,PennController,30,0,critical,NULL,Key,response,PressedKey,F,1765394926580,x7r0WCXblZ1Q1Bg,18,14,experimental,nom,targetMatch,Yes,Yes,1651,B,İşçi sorumluları soğuk kış havasından ötürü hastalandılar.,NULL
1765395567,618bcedf122a192c145d0a0bdebb976e,PennController,30,0,critical,NULL,Timer,time limit,End,End,1765394926580,x7r0WCXblZ1Q1Bg,18,14,experimental,nom,targetMatch,Yes,Yes,1651,B,İşçi sorumluları soğuk kış havasından ötürü hastalandılar.,NULL
1765395567,618bcedf122a192c145d0a0bdebb976e,PennController,30,0,critical,NULL,PennController,29,_Trial_,End,1765394926581,x7r0WCXblZ1Q1Bg,18,14,experimental,nom,targetMatch,Yes,Yes,1651,B,İşçi sorumluları soğuk kış havasından ötürü hastalandılar.,NULL
1765395567,618bcedf122a192c145d0a0bdebb976e,PennController,173,0,critical,NULL,PennController,172,_Header_,End,1765394926582,x7r0WCXblZ1Q1Bg,65,15,filler,PL,SG,No,No,1105,B,Öğrenciler fizik yüzünden sınıfta bıraktığına yeni öğrendim.,NULL
1765395567,618bcedf122a192c145d0a0bdebb976e,PennController,173,0,critical,NULL,PennController,172,_Header_,Start,1765394926582,x7r0WCXblZ1Q1Bg,65,15,filler,PL,SG,No,No,1105,B,Öğrenciler fizik yüzünden sınıfta bıraktığına yeni öğrendim.,NULL
1765395567,618bcedf122a192c145d0a0bdebb976e,PennController,173,0,critical,NULL,PennController,172,_Trial_,Start,1765394926582,x7r0WCXblZ1Q1Bg,65,15,filler,PL,SG,No,No,1105,B,Öğrenciler fizik yüzünden sınıfta bıraktığına yeni öğrendim.,NULL
1765395567,618bcedf122a192c145d0a0bdebb976e,PennController,173,0,critical,NULL,Timer,time limit,Start,Start,1765394930289,x7r0WCXblZ1Q1Bg,65,15,filler,PL,SG,No,No,1105,B,Öğrenciler fizik yüzünden sınıfta bıraktığına yeni öğrendim.,NULL
1765395567,618bcedf122a192c145d0a0bdebb976e,PennController,173,0,critical,NULL,Key,response,PressedKey,J,1765394930987,x7r0WCXblZ1Q1Bg,65,15,filler,PL,SG,No,No,1105,B,Öğrenciler fizik yüzünden sınıfta bıraktığına yeni öğrendim.,NULL
1765395567,618bcedf122a192c145d0a0bdebb976e,PennController,173,0,critical,NULL,Timer,time limit,End,End,1765394930987,x7r0WCXblZ1Q1Bg,65,15,filler,PL,SG,No,No,1105,B,Öğrenciler fizik yüzünden sınıfta bıraktığına yeni öğrendim.,NULL
1765395567,618bcedf122a192c145d0a0bdebb976e,PennController,173,0,critical,NULL,PennController,172,_Trial_,End,1765394930988,x7r0WCXblZ1Q1Bg,65,15,filler,PL,SG,No,No,1105,B,Öğrenciler fizik yüzünden sınıfta bıraktığına yeni öğrendim.,NULL
1765395567,618bcedf122a192c145d0a0bdebb976e,PennController,56,0,critical,NULL,PennController,55,_Header_,End,1765394930990,x7r0WCXblZ1Q1Bg,44,16,filler,PL,SG,Yes,Yes,1377,B,Çiftçiler açısından faydalı olan düzenleme maalesef reddedildi.,NULL
1765395567,618bcedf122a192c145d0a0bdebb976e,PennController,56,0,critical,NULL,PennController,55,_Header_,Start,1765394930990,x7r0WCXblZ1Q1Bg,44,16,filler,PL,SG,Yes,Yes,1377,B,Çiftçiler açısından faydalı olan düzenleme maalesef reddedildi.,NULL
1765395567,618bcedf122a192c145d0a0bdebb976e,PennController,56,0,critical,NULL,PennController,55,_Trial_,Start,1765394930990,x7r0WCXblZ1Q1Bg,44,16,filler,PL,SG,Yes,Yes,1377,B,Çiftçiler açısından faydalı olan düzenleme maalesef reddedildi.,NULL
1765395567,618bcedf122a192c145d0a0bdebb976e,PennController,56,0,critical,NULL,Timer,time limit,Start,Start,1765394934699,x7r0WCXblZ1Q1Bg,44,16,filler,PL,SG,Yes,Yes,1377,B,Çiftçiler açısından faydalı olan düzenleme maalesef reddedildi.,NULL
1765395567,618bcedf122a192c145d0a0bdebb976e,PennController,56,0,critical,NULL,Key,response,PressedKey,F,1765394935667,x7r0WCXblZ1Q1Bg,44,16,filler,PL,SG,Yes,Yes,1377,B,Çiftçiler açısından faydalı olan düzenleme maalesef reddedildi.,NULL
1765395567,618bcedf122a192c145d0a0bdebb976e,PennController,56,0,critical,NULL,Timer,time limit,End,End,1765394935667,x7r0WCXblZ1Q1Bg,44,16,filler,PL,SG,Yes,Yes,1377,B,Çiftçiler açısından faydalı olan düzenleme maalesef reddedildi.,NULL
1765395567,618bcedf122a192c145d0a0bdebb976e,PennController,56,0,critical,NULL,PennController,55,_Trial_,End,1765394935668,x7r0WCXblZ1Q1Bg,44,16,filler,PL,SG,Yes,Yes,1377,B,Çiftçiler açısından faydalı olan düzenleme maalesef reddedildi.,NULL
1765395567,618bcedf122a192c145d0a0bdebb976e,PennController,34,0,critical,NULL,PennController,33,_Header_,End,1765394935670,x7r0WCXblZ1Q1Bg,22,17,experimental,gen,noMatch,No,No,448,B,Engellinin savunucusu yeni bildirgeyi yüksek sesle okudular.,NULL
1765395567,618bcedf122a192c145d0a0bdebb976e,PennController,34,0,critical,NULL,PennController,33,_Header_,Start,1765394935670,x7r0WCXblZ1Q1Bg,22,17,experimental,gen,noMatch,No,No,448,B,Engellinin savunucusu yeni bildirgeyi yüksek sesle okudular.,NULL
1765395567,618bcedf122a192c145d0a0bdebb976e,PennController,34,0,critical,NULL,PennController,33,_Trial_,Start,1765394935670,x7r0WCXblZ1Q1Bg,22,17,experimental,gen,noMatch,No,No,448,B,Engellinin savunucusu yeni bildirgeyi yüksek sesle okudular.,NULL
1765395567,618bcedf122a192c145d0a0bdebb976e,PennController,34,0,critical,NULL,Timer,time limit,Start,Start,1765394939345,x7r0WCXblZ1Q1Bg,22,17,experimental,gen,noMatch,No,No,448,B,Engellinin savunucusu yeni bildirgeyi yüksek sesle okudular.,NULL
1765395567,618bcedf122a192c145d0a0bdebb976e,PennController,34,0,critical,NULL,Key,response,PressedKey,J,1765394939387,x7r0WCXblZ1Q1Bg,22,17,experimental,gen,noMatch,No,No,448,B,Engellinin savunucusu yeni bildirgeyi yüksek sesle okudular.,NULL
1765395567,618bcedf122a192c145d0a0bdebb976e,PennController,34,0,critical,NULL,Timer,time limit,End,End,1765394939387,x7r0WCXblZ1Q1Bg,22,17,experimental,gen,noMatch,No,No,448,B,Engellinin savunucusu yeni bildirgeyi yüksek sesle okudular.,NULL
1765395567,618bcedf122a192c145d0a0bdebb976e,PennController,34,0,critical,NULL,PennController,33,_Trial_,End,1765394939388,x7r0WCXblZ1Q1Bg,22,17,experimental,gen,noMatch,No,No,448,B,Engellinin savunucusu yeni bildirgeyi yüksek sesle okudular.,NULL
1765395567,618bcedf122a192c145d0a0bdebb976e,PennController,67,0,critical,NULL,PennController,66,_Header_,End,1765394939390,x7r0WCXblZ1Q1Bg,55,18,filler,SG,SG,Yes,Yes,676,B,Vali  bölge  meclislerinin  seçimini kurulda belirler.,NULL
1765395567,618bcedf122a192c145d0a0bdebb976e,PennController,67,0,critical,NULL,PennController,66,_Header_,Start,1765394939390,x7r0WCXblZ1Q1Bg,55,18,filler,SG,SG,Yes,Yes,676,B,Vali  bölge  meclislerinin  seçimini kurulda belirler.,NULL
1765395567,618bcedf122a192c145d0a0bdebb976e,PennController,67,0,critical,NULL,PennController,66,_Trial_,Start,1765394939390,x7r0WCXblZ1Q1Bg,55,18,filler,SG,SG,Yes,Yes,676,B,Vali  bölge  meclislerinin  seçimini kurulda belirler.,NULL
1765395567,618bcedf122a192c145d0a0bdebb976e,PennController,67,0,critical,NULL,Timer,time limit,Start,Start,1765394942664,x7r0WCXblZ1Q1Bg,55,18,filler,SG,SG,Yes,Yes,676,B,Vali  bölge  meclislerinin  seçimini kurulda belirler.,NULL
1765395567,618bcedf122a192c145d0a0bdebb976e,PennController,67,0,critical,NULL,Key,response,PressedKey,F,1765394942935,x7r0WCXblZ1Q1Bg,55,18,filler,SG,SG,Yes,Yes,676,B,Vali  bölge  meclislerinin  seçimini kurulda belirler.,NULL
1765395567,618bcedf122a192c145d0a0bdebb976e,PennController,67,0,critical,NULL,Timer,time limit,End,End,1765394942935,x7r0WCXblZ1Q1Bg,55,18,filler,SG,SG,Yes,Yes,676,B,Vali  bölge  meclislerinin  seçimini kurulda belirler.,NULL
1765395567,618bcedf122a192c145d0a0bdebb976e,PennController,67,0,critical,NULL,PennController,66,_Trial_,End,1765394942936,x7r0WCXblZ1Q1Bg,55,18,filler,SG,SG,Yes,Yes,676,B,Vali  bölge  meclislerinin  seçimini kurulda belirler.,NULL
1765395567,618bcedf122a192c145d0a0bdebb976e,PennController,77,0,critical,NULL,PennController,76,_Header_,End,1765394942938,x7r0WCXblZ1Q1Bg,65,19,filler,PL,SG,No,No,550,B,Öğrenciler fizik yüzünden sınıfta bıraktığına yeni öğrendim.,NULL
1765395567,618bcedf122a192c145d0a0bdebb976e,PennController,77,0,critical,NULL,PennController,76,_Header_,Start,1765394942938,x7r0WCXblZ1Q1Bg,65,19,filler,PL,SG,No,No,550,B,Öğrenciler fizik yüzünden sınıfta bıraktığına yeni öğrendim.,NULL
1765395567,618bcedf122a192c145d0a0bdebb976e,PennController,77,0,critical,NULL,PennController,76,_Trial_,Start,1765394942938,x7r0WCXblZ1Q1Bg,65,19,filler,PL,SG,No,No,550,B,Öğrenciler fizik yüzünden sınıfta bıraktığına yeni öğrendim.,NULL
1765395567,618bcedf122a192c145d0a0bdebb976e,PennController,77,0,critical,NULL,Timer,time limit,Start,Start,1765394946642,x7r0WCXblZ1Q1Bg,65,19,filler,PL,SG,No,No,550,B,Öğrenciler fizik yüzünden sınıfta bıraktığına yeni öğrendim.,NULL
1765395567,618bcedf122a192c145d0a0bdebb976e,PennController,77,0,critical,NULL,Key,response,PressedKey,J,1765394946786,x7r0WCXblZ1Q1Bg,65,19,filler,PL,SG,No,No,550,B,Öğrenciler fizik yüzünden sınıfta bıraktığına yeni öğrendim.,NULL
1765395567,618bcedf122a192c145d0a0bdebb976e,PennController,77,0,critical,NULL,Timer,time limit,End,End,1765394946786,x7r0WCXblZ1Q1Bg,65,19,filler,PL,SG,No,No,550,B,Öğrenciler fizik yüzünden sınıfta bıraktığına yeni öğrendim.,NULL
1765395567,618bcedf122a192c145d0a0bdebb976e,PennController,77,0,critical,NULL,PennController,76,_Trial_,End,1765394946787,x7r0WCXblZ1Q1Bg,65,19,filler,PL,SG,No,No,550,B,Öğrenciler fizik yüzünden sınıfta bıraktığına yeni öğrendim.,NULL
1765395567,618bcedf122a192c145d0a0bdebb976e,PennController,111,0,critical,NULL,PennController,110,_Header_,End,1765394946789,x7r0WCXblZ1Q1Bg,51,20,filler,SG,SG,Yes,Yes,1417,B,Müşteri tamircilerin dükkanını bulamayıp saatlerce sinirle dolaştı.,NULL
1765395567,618bcedf122a192c145d0a0bdebb976e,PennController,111,0,critical,NULL,PennController,110,_Header_,Start,1765394946789,x7r0WCXblZ1Q1Bg,51,20,filler,SG,SG,Yes,Yes,1417,B,Müşteri tamircilerin dükkanını bulamayıp saatlerce sinirle dolaştı.,NULL
1765395567,618bcedf122a192c145d0a0bdebb976e,PennController,111,0,critical,NULL,PennController,110,_Trial_,Start,1765394946789,x7r0WCXblZ1Q1Bg,51,20,filler,SG,SG,Yes,Yes,1417,B,Müşteri tamircilerin dükkanını bulamayıp saatlerce sinirle dolaştı.,NULL
1765395567,618bcedf122a192c145d0a0bdebb976e,PennController,111,0,critical,NULL,Timer,time limit,Start,Start,1765394950505,x7r0WCXblZ1Q1Bg,51,20,filler,SG,SG,Yes,Yes,1417,B,Müşteri tamircilerin dükkanını bulamayıp saatlerce sinirle dolaştı.,NULL
1765395567,618bcedf122a192c145d0a0bdebb976e,PennController,111,0,critical,NULL,PennController,110,_Trial_,End,1765394951517,x7r0WCXblZ1Q1Bg,51,20,filler,SG,SG,Yes,Yes,1417,B,Müşteri tamircilerin dükkanını bulamayıp saatlerce sinirle dolaştı.,NULL
1765395567,618bcedf122a192c145d0a0bdebb976e,PennController,111,0,critical,NULL,Key,response,PressedKey,F,1765394951517,x7r0WCXblZ1Q1Bg,51,20,filler,SG,SG,Yes,Yes,1417,B,Müşteri tamircilerin dükkanını bulamayıp saatlerce sinirle dolaştı.,NULL
1765395567,618bcedf122a192c145d0a0bdebb976e,PennController,111,0,critical,NULL,Timer,time limit,End,End,1765394951517,x7r0WCXblZ1Q1Bg,51,20,filler,SG,SG,Yes,Yes,1417,B,Müşteri tamircilerin dükkanını bulamayıp saatlerce sinirle dolaştı.,NULL
1765395567,618bcedf122a192c145d0a0bdebb976e,PennController,81,0,critical,NULL,PennController,80,_Header_,End,1765394951518,x7r0WCXblZ1Q1Bg,69,21,filler,PL,SG,No,No,537,B,Müzisyenler gösteri sonrası  eşini hiç selamlar.,NULL
1765395567,618bcedf122a192c145d0a0bdebb976e,PennController,81,0,critical,NULL,PennController,80,_Header_,Start,1765394951518,x7r0WCXblZ1Q1Bg,69,21,filler,PL,SG,No,No,537,B,Müzisyenler gösteri sonrası  eşini hiç selamlar.,NULL
1765395567,618bcedf122a192c145d0a0bdebb976e,PennController,81,0,critical,NULL,PennController,80,_Trial_,Start,1765394951518,x7r0WCXblZ1Q1Bg,69,21,filler,PL,SG,No,No,537,B,Müzisyenler gösteri sonrası  eşini hiç selamlar.,NULL
1765395567,618bcedf122a192c145d0a0bdebb976e,PennController,81,0,critical,NULL,Timer,time limit,Start,Start,1765394954783,x7r0WCXblZ1Q1Bg,69,21,filler,PL,SG,No,No,537,B,Müzisyenler gösteri sonrası  eşini hiç selamlar.,NULL
1765395567,618bcedf122a192c145d0a0bdebb976e,PennController,81,0,critical,NULL,Key,response,PressedKey,J,1765394954913,x7r0WCXblZ1Q1Bg,69,21,filler,PL,SG,No,No,537,B,Müzisyenler gösteri sonrası  eşini hiç selamlar.,NULL
1765395567,618bcedf122a192c145d0a0bdebb976e,PennController,81,0,critical,NULL,Timer,time limit,End,End,1765394954913,x7r0WCXblZ1Q1Bg,69,21,filler,PL,SG,No,No,537,B,Müzisyenler gösteri sonrası  eşini hiç selamlar.,NULL
1765395567,618bcedf122a192c145d0a0bdebb976e,PennController,81,0,critical,NULL,PennController,80,_Trial_,End,1765394954914,x7r0WCXblZ1Q1Bg,69,21,filler,PL,SG,No,No,537,B,Müzisyenler gösteri sonrası  eşini hiç selamlar.,NULL
1765395567,618bcedf122a192c145d0a0bdebb976e,PennController,16,0,critical,NULL,PennController,15,_Header_,End,1765394954915,x7r0WCXblZ1Q1Bg,4,22,experimental,gen,attractorMatch,No,No,890,B,Mültecilerin avukatı duruşma için uzun süre hazırlandılar.,NULL
1765395567,618bcedf122a192c145d0a0bdebb976e,PennController,16,0,critical,NULL,PennController,15,_Header_,Start,1765394954915,x7r0WCXblZ1Q1Bg,4,22,experimental,gen,attractorMatch,No,No,890,B,Mültecilerin avukatı duruşma için uzun süre hazırlandılar.,NULL
1765395567,618bcedf122a192c145d0a0bdebb976e,PennController,16,0,critical,NULL,PennController,15,_Trial_,Start,1765394954915,x7r0WCXblZ1Q1Bg,4,22,experimental,gen,attractorMatch,No,No,890,B,Mültecilerin avukatı duruşma için uzun süre hazırlandılar.,NULL
1765395567,618bcedf122a192c145d0a0bdebb976e,PennController,16,0,critical,NULL,Timer,time limit,Start,Start,1765394958627,x7r0WCXblZ1Q1Bg,4,22,experimental,gen,attractorMatch,No,No,890,B,Mültecilerin avukatı duruşma için uzun süre hazırlandılar.,NULL
1765395567,618bcedf122a192c145d0a0bdebb976e,PennController,16,0,critical,NULL,Key,response,PressedKey,J,1765394959110,x7r0WCXblZ1Q1Bg,4,22,experimental,gen,attractorMatch,No,No,890,B,Mültecilerin avukatı duruşma için uzun süre hazırlandılar.,NULL
1765395567,618bcedf122a192c145d0a0bdebb976e,PennController,16,0,critical,NULL,Timer,time limit,End,End,1765394959110,x7r0WCXblZ1Q1Bg,4,22,experimental,gen,attractorMatch,No,No,890,B,Mültecilerin avukatı duruşma için uzun süre hazırlandılar.,NULL
1765395567,618bcedf122a192c145d0a0bdebb976e,PennController,16,0,critical,NULL,PennController,15,_Trial_,End,1765394959111,x7r0WCXblZ1Q1Bg,4,22,experimental,gen,attractorMatch,No,No,890,B,Mültecilerin avukatı duruşma için uzun süre hazırlandılar.,NULL
1765395567,618bcedf122a192c145d0a0bdebb976e,PennController,152,0,critical,NULL,PennController,151,_Header_,End,1765394959113,x7r0WCXblZ1Q1Bg,44,23,filler,PL,SG,Yes,Yes,1256,B,Çiftçiler açısından faydalı olan düzenleme maalesef reddedildi.,NULL
1765395567,618bcedf122a192c145d0a0bdebb976e,PennController,152,0,critical,NULL,PennController,151,_Header_,Start,1765394959113,x7r0WCXblZ1Q1Bg,44,23,filler,PL,SG,Yes,Yes,1256,B,Çiftçiler açısından faydalı olan düzenleme maalesef reddedildi.,NULL
1765395567,618bcedf122a192c145d0a0bdebb976e,PennController,152,0,critical,NULL,PennController,151,_Trial_,Start,1765394959113,x7r0WCXblZ1Q1Bg,44,23,filler,PL,SG,Yes,Yes,1256,B,Çiftçiler açısından faydalı olan düzenleme maalesef reddedildi.,NULL
1765395567,618bcedf122a192c145d0a0bdebb976e,PennController,152,0,critical,NULL,Timer,time limit,Start,Start,1765394962803,x7r0WCXblZ1Q1Bg,44,23,filler,PL,SG,Yes,Yes,1256,B,Çiftçiler açısından faydalı olan düzenleme maalesef reddedildi.,NULL
1765395567,618bcedf122a192c145d0a0bdebb976e,PennController,152,0,critical,NULL,Key,response,PressedKey,F,1765394963654,x7r0WCXblZ1Q1Bg,44,23,filler,PL,SG,Yes,Yes,1256,B,Çiftçiler açısından faydalı olan düzenleme maalesef reddedildi.,NULL
1765395567,618bcedf122a192c145d0a0bdebb976e,PennController,152,0,critical,NULL,Timer,time limit,End,End,1765394963654,x7r0WCXblZ1Q1Bg,44,23,filler,PL,SG,Yes,Yes,1256,B,Çiftçiler açısından faydalı olan düzenleme maalesef reddedildi.,NULL
1765395567,618bcedf122a192c145d0a0bdebb976e,PennController,152,0,critical,NULL,PennController,151,_Trial_,End,1765394963655,x7r0WCXblZ1Q1Bg,44,23,filler,PL,SG,Yes,Yes,1256,B,Çiftçiler açısından faydalı olan düzenleme maalesef reddedildi.,NULL
1765395567,618bcedf122a192c145d0a0bdebb976e,PennController,99,0,critical,NULL,PennController,98,_Header_,End,1765394963657,x7r0WCXblZ1Q1Bg,39,24,filler,SG,SG,Yes,Yes,1128,B,Satıcı elmalar kurtlandığı için atmak durumunda kaldı.,NULL
1765395567,618bcedf122a192c145d0a0bdebb976e,PennController,99,0,critical,NULL,PennController,98,_Header_,Start,1765394963657,x7r0WCXblZ1Q1Bg,39,24,filler,SG,SG,Yes,Yes,1128,B,Satıcı elmalar kurtlandığı için atmak durumunda kaldı.,NULL
1765395567,618bcedf122a192c145d0a0bdebb976e,PennController,99,0,critical,NULL,PennController,98,_Trial_,Start,1765394963657,x7r0WCXblZ1Q1Bg,39,24,filler,SG,SG,Yes,Yes,1128,B,Satıcı elmalar kurtlandığı için atmak durumunda kaldı.,NULL
1765395567,618bcedf122a192c145d0a0bdebb976e,PennController,99,0,critical,NULL,Timer,time limit,Start,Start,1765394967365,x7r0WCXblZ1Q1Bg,39,24,filler,SG,SG,Yes,Yes,1128,B,Satıcı elmalar kurtlandığı için atmak durumunda kaldı.,NULL
1765395567,618bcedf122a192c145d0a0bdebb976e,PennController,99,0,critical,NULL,Key,response,PressedKey,F,1765394968088,x7r0WCXblZ1Q1Bg,39,24,filler,SG,SG,Yes,Yes,1128,B,Satıcı elmalar kurtlandığı için atmak durumunda kaldı.,NULL
1765395567,618bcedf122a192c145d0a0bdebb976e,PennController,99,0,critical,NULL,Timer,time limit,End,End,1765394968088,x7r0WCXblZ1Q1Bg,39,24,filler,SG,SG,Yes,Yes,1128,B,Satıcı elmalar kurtlandığı için atmak durumunda kaldı.,NULL
1765395567,618bcedf122a192c145d0a0bdebb976e,PennController,99,0,critical,NULL,PennController,98,_Trial_,End,1765394968089,x7r0WCXblZ1Q1Bg,39,24,filler,SG,SG,Yes,Yes,1128,B,Satıcı elmalar kurtlandığı için atmak durumunda kaldı.,NULL
1765395567,618bcedf122a192c145d0a0bdebb976e,PennController,160,0,critical,NULL,PennController,159,_Header_,End,1765394968090,x7r0WCXblZ1Q1Bg,52,25,filler,SG,SG,Yes,Yes,1376,B,Bakıcı valinin çocukları görünmeyince çok gerilmiş.,NULL
1765395567,618bcedf122a192c145d0a0bdebb976e,PennController,160,0,critical,NULL,PennController,159,_Header_,Start,1765394968090,x7r0WCXblZ1Q1Bg,52,25,filler,SG,SG,Yes,Yes,1376,B,Bakıcı valinin çocukları görünmeyince çok gerilmiş.,NULL
1765395567,618bcedf122a192c145d0a0bdebb976e,PennController,160,0,critical,NULL,PennController,159,_Trial_,Start,1765394968090,x7r0WCXblZ1Q1Bg,52,25,filler,SG,SG,Yes,Yes,1376,B,Bakıcı valinin çocukları görünmeyince çok gerilmiş.,NULL
1765395567,618bcedf122a192c145d0a0bdebb976e,PennController,160,0,critical,NULL,Timer,time limit,Start,Start,1765394971379,x7r0WCXblZ1Q1Bg,52,25,filler,SG,SG,Yes,Yes,1376,B,Bakıcı valinin çocukları görünmeyince çok gerilmiş.,NULL
1765395567,618bcedf122a192c145d0a0bdebb976e,PennController,160,0,critical,NULL,PennController,159,_Trial_,End,1765394972351,x7r0WCXblZ1Q1Bg,52,25,filler,SG,SG,Yes,Yes,1376,B,Bakıcı valinin çocukları görünmeyince çok gerilmiş.,NULL
1765395567,618bcedf122a192c145d0a0bdebb976e,PennController,160,0,critical,NULL,Key,response,PressedKey,F,1765394972351,x7r0WCXblZ1Q1Bg,52,25,filler,SG,SG,Yes,Yes,1376,B,Bakıcı valinin çocukları görünmeyince çok gerilmiş.,NULL
1765395567,618bcedf122a192c145d0a0bdebb976e,PennController,160,0,critical,NULL,Timer,time limit,End,End,1765394972351,x7r0WCXblZ1Q1Bg,52,25,filler,SG,SG,Yes,Yes,1376,B,Bakıcı valinin çocukları görünmeyince çok gerilmiş.,NULL
1765395567,618bcedf122a192c145d0a0bdebb976e,PennController,35,0,critical,NULL,PennController,34,_Header_,End,1765394972352,x7r0WCXblZ1Q1Bg,23,26,experimental,gen,noMatch,No,No,775,B,Personelin müfettişi işyerindeki derli toplu sistemi beğendiler.,NULL
1765395567,618bcedf122a192c145d0a0bdebb976e,PennController,35,0,critical,NULL,PennController,34,_Header_,Start,1765394972352,x7r0WCXblZ1Q1Bg,23,26,experimental,gen,noMatch,No,No,775,B,Personelin müfettişi işyerindeki derli toplu sistemi beğendiler.,NULL
1765395567,618bcedf122a192c145d0a0bdebb976e,PennController,35,0,critical,NULL,PennController,34,_Trial_,Start,1765394972352,x7r0WCXblZ1Q1Bg,23,26,experimental,gen,noMatch,No,No,775,B,Personelin müfettişi işyerindeki derli toplu sistemi beğendiler.,NULL
1765395567,618bcedf122a192c145d0a0bdebb976e,PennController,35,0,critical,NULL,Timer,time limit,Start,Start,1765394976045,x7r0WCXblZ1Q1Bg,23,26,experimental,gen,noMatch,No,No,775,B,Personelin müfettişi işyerindeki derli toplu sistemi beğendiler.,NULL
1765395567,618bcedf122a192c145d0a0bdebb976e,PennController,35,0,critical,NULL,Key,response,PressedKey,J,1765394976413,x7r0WCXblZ1Q1Bg,23,26,experimental,gen,noMatch,No,No,775,B,Personelin müfettişi işyerindeki derli toplu sistemi beğendiler.,NULL
1765395567,618bcedf122a192c145d0a0bdebb976e,PennController,35,0,critical,NULL,Timer,time limit,End,End,1765394976413,x7r0WCXblZ1Q1Bg,23,26,experimental,gen,noMatch,No,No,775,B,Personelin müfettişi işyerindeki derli toplu sistemi beğendiler.,NULL
1765395567,618bcedf122a192c145d0a0bdebb976e,PennController,35,0,critical,NULL,PennController,34,_Trial_,End,1765394976414,x7r0WCXblZ1Q1Bg,23,26,experimental,gen,noMatch,No,No,775,B,Personelin müfettişi işyerindeki derli toplu sistemi beğendiler.,NULL
1765395567,618bcedf122a192c145d0a0bdebb976e,PennController,159,0,critical,NULL,PennController,158,_Header_,End,1765394976416,x7r0WCXblZ1Q1Bg,51,27,filler,SG,SG,Yes,Yes,964,B,Müşteri tamircilerin dükkanını bulamayıp saatlerce sinirle dolaştı.,NULL
1765395567,618bcedf122a192c145d0a0bdebb976e,PennController,159,0,critical,NULL,PennController,158,_Header_,Start,1765394976416,x7r0WCXblZ1Q1Bg,51,27,filler,SG,SG,Yes,Yes,964,B,Müşteri tamircilerin dükkanını bulamayıp saatlerce sinirle dolaştı.,NULL
1765395567,618bcedf122a192c145d0a0bdebb976e,PennController,159,0,critical,NULL,PennController,158,_Trial_,Start,1765394976416,x7r0WCXblZ1Q1Bg,51,27,filler,SG,SG,Yes,Yes,964,B,Müşteri tamircilerin dükkanını bulamayıp saatlerce sinirle dolaştı.,NULL
1765395567,618bcedf122a192c145d0a0bdebb976e,PennController,159,0,critical,NULL,Timer,time limit,Start,Start,1765394980128,x7r0WCXblZ1Q1Bg,51,27,filler,SG,SG,Yes,Yes,964,B,Müşteri tamircilerin dükkanını bulamayıp saatlerce sinirle dolaştı.,NULL
1765395567,618bcedf122a192c145d0a0bdebb976e,PennController,159,0,critical,NULL,Key,response,PressedKey,F,1765394980685,x7r0WCXblZ1Q1Bg,51,27,filler,SG,SG,Yes,Yes,964,B,Müşteri tamircilerin dükkanını bulamayıp saatlerce sinirle dolaştı.,NULL
1765395567,618bcedf122a192c145d0a0bdebb976e,PennController,159,0,critical,NULL,Timer,time limit,End,End,1765394980685,x7r0WCXblZ1Q1Bg,51,27,filler,SG,SG,Yes,Yes,964,B,Müşteri tamircilerin dükkanını bulamayıp saatlerce sinirle dolaştı.,NULL
1765395567,618bcedf122a192c145d0a0bdebb976e,PennController,159,0,critical,NULL,PennController,158,_Trial_,End,1765394980686,x7r0WCXblZ1Q1Bg,51,27,filler,SG,SG,Yes,Yes,964,B,Müşteri tamircilerin dükkanını bulamayıp saatlerce sinirle dolaştı.,NULL
1765395567,618bcedf122a192c145d0a0bdebb976e,PennController,176,0,critical,NULL,PennController,175,_Header_,End,1765394980688,x7r0WCXblZ1Q1Bg,68,28,filler,PL,SG,No,No,823,B,Gazeteciler izlediğimiz haberi dün  paylaşmayacak bence.,NULL
1765395567,618bcedf122a192c145d0a0bdebb976e,PennController,176,0,critical,NULL,PennController,175,_Header_,Start,1765394980688,x7r0WCXblZ1Q1Bg,68,28,filler,PL,SG,No,No,823,B,Gazeteciler izlediğimiz haberi dün  paylaşmayacak bence.,NULL
1765395567,618bcedf122a192c145d0a0bdebb976e,PennController,176,0,critical,NULL,PennController,175,_Trial_,Start,1765394980688,x7r0WCXblZ1Q1Bg,68,28,filler,PL,SG,No,No,823,B,Gazeteciler izlediğimiz haberi dün  paylaşmayacak bence.,NULL
1765395567,618bcedf122a192c145d0a0bdebb976e,PennController,176,0,critical,NULL,Timer,time limit,Start,Start,1765394983947,x7r0WCXblZ1Q1Bg,68,28,filler,PL,SG,No,No,823,B,Gazeteciler izlediğimiz haberi dün  paylaşmayacak bence.,NULL
1765395567,618bcedf122a192c145d0a0bdebb976e,PennController,176,0,critical,NULL,Key,response,PressedKey,J,1765394984365,x7r0WCXblZ1Q1Bg,68,28,filler,PL,SG,No,No,823,B,Gazeteciler izlediğimiz haberi dün  paylaşmayacak bence.,NULL
1765395567,618bcedf122a192c145d0a0bdebb976e,PennController,176,0,critical,NULL,Timer,time limit,End,End,1765394984365,x7r0WCXblZ1Q1Bg,68,28,filler,PL,SG,No,No,823,B,Gazeteciler izlediğimiz haberi dün  paylaşmayacak bence.,NULL
1765395567,618bcedf122a192c145d0a0bdebb976e,PennController,58,0,critical,NULL,PennController,57,_Header_,End,1765394984366,x7r0WCXblZ1Q1Bg,46,29,filler,PL,SG,Yes,Yes,871,B,Taksiciler karşısında vali ne yapacağını bilemez haldeydi.,NULL
1765395567,618bcedf122a192c145d0a0bdebb976e,PennController,58,0,critical,NULL,PennController,57,_Header_,Start,1765394984366,x7r0WCXblZ1Q1Bg,46,29,filler,PL,SG,Yes,Yes,871,B,Taksiciler karşısında vali ne yapacağını bilemez haldeydi.,NULL
1765395567,618bcedf122a192c145d0a0bdebb976e,PennController,58,0,critical,NULL,PennController,57,_Trial_,Start,1765394984366,x7r0WCXblZ1Q1Bg,46,29,filler,PL,SG,Yes,Yes,871,B,Taksiciler karşısında vali ne yapacağını bilemez haldeydi.,NULL
1765395567,618bcedf122a192c145d0a0bdebb976e,PennController,176,0,critical,NULL,PennController,175,_Trial_,End,1765394984366,x7r0WCXblZ1Q1Bg,68,28,filler,PL,SG,No,No,823,B,Gazeteciler izlediğimiz haberi dün  paylaşmayacak bence.,NULL
1765395567,618bcedf122a192c145d0a0bdebb976e,PennController,58,0,critical,NULL,Timer,time limit,Start,Start,1765394988039,x7r0WCXblZ1Q1Bg,46,29,filler,PL,SG,Yes,Yes,871,B,Taksiciler karşısında vali ne yapacağını bilemez haldeydi.,NULL
1765395567,618bcedf122a192c145d0a0bdebb976e,PennController,58,0,critical,NULL,Key,response,PressedKey,F,1765394988504,x7r0WCXblZ1Q1Bg,46,29,filler,PL,SG,Yes,Yes,871,B,Taksiciler karşısında vali ne yapacağını bilemez haldeydi.,NULL
1765395567,618bcedf122a192c145d0a0bdebb976e,PennController,58,0,critical,NULL,Timer,time limit,End,End,1765394988504,x7r0WCXblZ1Q1Bg,46,29,filler,PL,SG,Yes,Yes,871,B,Taksiciler karşısında vali ne yapacağını bilemez haldeydi.,NULL
1765395567,618bcedf122a192c145d0a0bdebb976e,PennController,58,0,critical,NULL,PennController,57,_Trial_,End,1765394988505,x7r0WCXblZ1Q1Bg,46,29,filler,PL,SG,Yes,Yes,871,B,Taksiciler karşısında vali ne yapacağını bilemez haldeydi.,NULL
1765395567,618bcedf122a192c145d0a0bdebb976e,PennController,75,0,critical,NULL,PennController,74,_Header_,End,1765394988506,x7r0WCXblZ1Q1Bg,63,30,filler,SG,SG,No,No,888,B,Usta bir gitarist olduğu hayran olundu.,NULL
1765395567,618bcedf122a192c145d0a0bdebb976e,PennController,75,0,critical,NULL,PennController,74,_Header_,Start,1765394988506,x7r0WCXblZ1Q1Bg,63,30,filler,SG,SG,No,No,888,B,Usta bir gitarist olduğu hayran olundu.,NULL
1765395567,618bcedf122a192c145d0a0bdebb976e,PennController,75,0,critical,NULL,PennController,74,_Trial_,Start,1765394988506,x7r0WCXblZ1Q1Bg,63,30,filler,SG,SG,No,No,888,B,Usta bir gitarist olduğu hayran olundu.,NULL
1765395567,618bcedf122a192c145d0a0bdebb976e,PennController,75,0,critical,NULL,Timer,time limit,Start,Start,1765394991788,x7r0WCXblZ1Q1Bg,63,30,filler,SG,SG,No,No,888,B,Usta bir gitarist olduğu hayran olundu.,NULL
1765395567,618bcedf122a192c145d0a0bdebb976e,PennController,75,0,critical,NULL,Key,response,PressedKey,J,1765394992270,x7r0WCXblZ1Q1Bg,63,30,filler,SG,SG,No,No,888,B,Usta bir gitarist olduğu hayran olundu.,NULL
1765395567,618bcedf122a192c145d0a0bdebb976e,PennController,75,0,critical,NULL,Timer,time limit,End,End,1765394992270,x7r0WCXblZ1Q1Bg,63,30,filler,SG,SG,No,No,888,B,Usta bir gitarist olduğu hayran olundu.,NULL
1765395567,618bcedf122a192c145d0a0bdebb976e,PennController,75,0,critical,NULL,PennController,74,_Trial_,End,1765394992271,x7r0WCXblZ1Q1Bg,63,30,filler,SG,SG,No,No,888,B,Usta bir gitarist olduğu hayran olundu.,NULL
1765395567,618bcedf122a192c145d0a0bdebb976e,PennController,119,0,critical,NULL,PennController,118,_Header_,End,1765394992272,x7r0WCXblZ1Q1Bg,59,31,filler,SG,SG,No,Yes,1149,B,Ev arkadaşı belki birini kesin görmüşmüş.,NULL
1765395567,618bcedf122a192c145d0a0bdebb976e,PennController,119,0,critical,NULL,PennController,118,_Header_,Start,1765394992272,x7r0WCXblZ1Q1Bg,59,31,filler,SG,SG,No,Yes,1149,B,Ev arkadaşı belki birini kesin görmüşmüş.,NULL
1765395567,618bcedf122a192c145d0a0bdebb976e,PennController,119,0,critical,NULL,PennController,118,_Trial_,Start,1765394992272,x7r0WCXblZ1Q1Bg,59,31,filler,SG,SG,No,Yes,1149,B,Ev arkadaşı belki birini kesin görmüşmüş.,NULL
1765395567,618bcedf122a192c145d0a0bdebb976e,PennController,119,0,critical,NULL,Timer,time limit,Start,Start,1765394995537,x7r0WCXblZ1Q1Bg,59,31,filler,SG,SG,No,Yes,1149,B,Ev arkadaşı belki birini kesin görmüşmüş.,NULL
1765395567,618bcedf122a192c145d0a0bdebb976e,PennController,119,0,critical,NULL,Key,response,PressedKey,F,1765394996279,x7r0WCXblZ1Q1Bg,59,31,filler,SG,SG,No,Yes,1149,B,Ev arkadaşı belki birini kesin görmüşmüş.,NULL
1765395567,618bcedf122a192c145d0a0bdebb976e,PennController,119,0,critical,NULL,Timer,time limit,End,End,1765394996279,x7r0WCXblZ1Q1Bg,59,31,filler,SG,SG,No,Yes,1149,B,Ev arkadaşı belki birini kesin görmüşmüş.,NULL
1765395567,618bcedf122a192c145d0a0bdebb976e,PennController,119,0,critical,NULL,PennController,118,_Trial_,End,1765394996281,x7r0WCXblZ1Q1Bg,59,31,filler,SG,SG,No,Yes,1149,B,Ev arkadaşı belki birini kesin görmüşmüş.,NULL
1765395567,618bcedf122a192c145d0a0bdebb976e,PennController,174,0,critical,NULL,PennController,173,_Header_,End,1765394996283,x7r0WCXblZ1Q1Bg,66,32,filler,PL,SG,No,Yes,516,B,Gazeteciler izleyicinin hemen sonra sahneye çıkılacak.,NULL
1765395567,618bcedf122a192c145d0a0bdebb976e,PennController,174,0,critical,NULL,PennController,173,_Header_,Start,1765394996283,x7r0WCXblZ1Q1Bg,66,32,filler,PL,SG,No,Yes,516,B,Gazeteciler izleyicinin hemen sonra sahneye çıkılacak.,NULL
1765395567,618bcedf122a192c145d0a0bdebb976e,PennController,174,0,critical,NULL,PennController,173,_Trial_,Start,1765394996283,x7r0WCXblZ1Q1Bg,66,32,filler,PL,SG,No,Yes,516,B,Gazeteciler izleyicinin hemen sonra sahneye çıkılacak.,NULL
1765395567,618bcedf122a192c145d0a0bdebb976e,PennController,174,0,critical,NULL,Timer,time limit,Start,Start,1765394999568,x7r0WCXblZ1Q1Bg,66,32,filler,PL,SG,No,Yes,516,B,Gazeteciler izleyicinin hemen sonra sahneye çıkılacak.,NULL
1765395567,618bcedf122a192c145d0a0bdebb976e,PennController,174,0,critical,NULL,Key,response,PressedKey,F,1765394999678,x7r0WCXblZ1Q1Bg,66,32,filler,PL,SG,No,Yes,516,B,Gazeteciler izleyicinin hemen sonra sahneye çıkılacak.,NULL
1765395567,618bcedf122a192c145d0a0bdebb976e,PennController,174,0,critical,NULL,Timer,time limit,End,End,1765394999678,x7r0WCXblZ1Q1Bg,66,32,filler,PL,SG,No,Yes,516,B,Gazeteciler izleyicinin hemen sonra sahneye çıkılacak.,NULL
1765395567,618bcedf122a192c145d0a0bdebb976e,PennController,174,0,critical,NULL,PennController,173,_Trial_,End,1765394999679,x7r0WCXblZ1Q1Bg,66,32,filler,PL,SG,No,Yes,516,B,Gazeteciler izleyicinin hemen sonra sahneye çıkılacak.,NULL
1765395567,618bcedf122a192c145d0a0bdebb976e,PennController,55,0,critical,NULL,PennController,54,_Header_,End,1765394999681,x7r0WCXblZ1Q1Bg,43,33,filler,PL,SG,Yes,Yes,548,B,Gitaristler tarafından hayranlıkla izlenen müzisyen hayatını kaybetti.,NULL
1765395567,618bcedf122a192c145d0a0bdebb976e,PennController,55,0,critical,NULL,PennController,54,_Header_,Start,1765394999681,x7r0WCXblZ1Q1Bg,43,33,filler,PL,SG,Yes,Yes,548,B,Gitaristler tarafından hayranlıkla izlenen müzisyen hayatını kaybetti.,NULL
1765395567,618bcedf122a192c145d0a0bdebb976e,PennController,55,0,critical,NULL,PennController,54,_Trial_,Start,1765394999681,x7r0WCXblZ1Q1Bg,43,33,filler,PL,SG,Yes,Yes,548,B,Gitaristler tarafından hayranlıkla izlenen müzisyen hayatını kaybetti.,NULL
1765395567,618bcedf122a192c145d0a0bdebb976e,PennController,55,0,critical,NULL,Timer,time limit,Start,Start,1765395003350,x7r0WCXblZ1Q1Bg,43,33,filler,PL,SG,Yes,Yes,548,B,Gitaristler tarafından hayranlıkla izlenen müzisyen hayatını kaybetti.,NULL
1765395567,618bcedf122a192c145d0a0bdebb976e,PennController,55,0,critical,NULL,Key,response,PressedKey,F,1765395003491,x7r0WCXblZ1Q1Bg,43,33,filler,PL,SG,Yes,Yes,548,B,Gitaristler tarafından hayranlıkla izlenen müzisyen hayatını kaybetti.,NULL
1765395567,618bcedf122a192c145d0a0bdebb976e,PennController,55,0,critical,NULL,PennController,54,_Trial_,End,1765395003492,x7r0WCXblZ1Q1Bg,43,33,filler,PL,SG,Yes,Yes,548,B,Gitaristler tarafından hayranlıkla izlenen müzisyen hayatını kaybetti.,NULL
1765395567,618bcedf122a192c145d0a0bdebb976e,PennController,55,0,critical,NULL,Timer,time limit,End,End,1765395003492,x7r0WCXblZ1Q1Bg,43,33,filler,PL,SG,Yes,Yes,548,B,Gitaristler tarafından hayranlıkla izlenen müzisyen hayatını kaybetti.,NULL
1765395567,618bcedf122a192c145d0a0bdebb976e,PennController,39,0,critical,NULL,PennController,38,_Header_,End,1765395003494,x7r0WCXblZ1Q1Bg,27,34,filler,PL,PL,Yes,Yes,559,B,Avrupalılar Hindistan'ı ararken yanlışlıkla Amerika'yı keşfettiler.,NULL
1765395567,618bcedf122a192c145d0a0bdebb976e,PennController,39,0,critical,NULL,PennController,38,_Header_,Start,1765395003494,x7r0WCXblZ1Q1Bg,27,34,filler,PL,PL,Yes,Yes,559,B,Avrupalılar Hindistan'ı ararken yanlışlıkla Amerika'yı keşfettiler.,NULL
1765395567,618bcedf122a192c145d0a0bdebb976e,PennController,39,0,critical,NULL,PennController,38,_Trial_,Start,1765395003494,x7r0WCXblZ1Q1Bg,27,34,filler,PL,PL,Yes,Yes,559,B,Avrupalılar Hindistan'ı ararken yanlışlıkla Amerika'yı keşfettiler.,NULL
1765395567,618bcedf122a192c145d0a0bdebb976e,PennController,39,0,critical,NULL,Timer,time limit,Start,Start,1765395006764,x7r0WCXblZ1Q1Bg,27,34,filler,PL,PL,Yes,Yes,559,B,Avrupalılar Hindistan'ı ararken yanlışlıkla Amerika'yı keşfettiler.,NULL
1765395567,618bcedf122a192c145d0a0bdebb976e,PennController,39,0,critical,NULL,Key,response,PressedKey,F,1765395006916,x7r0WCXblZ1Q1Bg,27,34,filler,PL,PL,Yes,Yes,559,B,Avrupalılar Hindistan'ı ararken yanlışlıkla Amerika'yı keşfettiler.,NULL
1765395567,618bcedf122a192c145d0a0bdebb976e,PennController,39,0,critical,NULL,Timer,time limit,End,End,1765395006916,x7r0WCXblZ1Q1Bg,27,34,filler,PL,PL,Yes,Yes,559,B,Avrupalılar Hindistan'ı ararken yanlışlıkla Amerika'yı keşfettiler.,NULL
1765395567,618bcedf122a192c145d0a0bdebb976e,PennController,39,0,critical,NULL,PennController,38,_Trial_,End,1765395006917,x7r0WCXblZ1Q1Bg,27,34,filler,PL,PL,Yes,Yes,559,B,Avrupalılar Hindistan'ı ararken yanlışlıkla Amerika'yı keşfettiler.,NULL
1765395567,618bcedf122a192c145d0a0bdebb976e,PennController,57,0,critical,NULL,PennController,56,_Header_,End,1765395006919,x7r0WCXblZ1Q1Bg,45,35,filler,PL,SG,Yes,Yes,1011,B,Polisler karşısında çaresiz kalan kadın suskundu.,NULL
1765395567,618bcedf122a192c145d0a0bdebb976e,PennController,57,0,critical,NULL,PennController,56,_Header_,Start,1765395006919,x7r0WCXblZ1Q1Bg,45,35,filler,PL,SG,Yes,Yes,1011,B,Polisler karşısında çaresiz kalan kadın suskundu.,NULL
1765395567,618bcedf122a192c145d0a0bdebb976e,PennController,57,0,critical,NULL,PennController,56,_Trial_,Start,1765395006919,x7r0WCXblZ1Q1Bg,45,35,filler,PL,SG,Yes,Yes,1011,B,Polisler karşısında çaresiz kalan kadın suskundu.,NULL
1765395567,618bcedf122a192c145d0a0bdebb976e,PennController,57,0,critical,NULL,Timer,time limit,Start,Start,1765395010198,x7r0WCXblZ1Q1Bg,45,35,filler,PL,SG,Yes,Yes,1011,B,Polisler karşısında çaresiz kalan kadın suskundu.,NULL
1765395567,618bcedf122a192c145d0a0bdebb976e,PennController,57,0,critical,NULL,Key,response,PressedKey,F,1765395010802,x7r0WCXblZ1Q1Bg,45,35,filler,PL,SG,Yes,Yes,1011,B,Polisler karşısında çaresiz kalan kadın suskundu.,NULL
1765395567,618bcedf122a192c145d0a0bdebb976e,PennController,57,0,critical,NULL,Timer,time limit,End,End,1765395010802,x7r0WCXblZ1Q1Bg,45,35,filler,PL,SG,Yes,Yes,1011,B,Polisler karşısında çaresiz kalan kadın suskundu.,NULL
1765395567,618bcedf122a192c145d0a0bdebb976e,PennController,57,0,critical,NULL,PennController,56,_Trial_,End,1765395010803,x7r0WCXblZ1Q1Bg,45,35,filler,PL,SG,Yes,Yes,1011,B,Polisler karşısında çaresiz kalan kadın suskundu.,NULL
1765395567,618bcedf122a192c145d0a0bdebb976e,PennController,38,0,critical,NULL,PennController,37,_Header_,End,1765395010805,x7r0WCXblZ1Q1Bg,26,36,filler,PL,PL,Yes,Yes,407,B,Yetkililer  havalimanında  daha  etkili bir yaklaşım benimsediler.,NULL
1765395567,618bcedf122a192c145d0a0bdebb976e,PennController,38,0,critical,NULL,PennController,37,_Header_,Start,1765395010805,x7r0WCXblZ1Q1Bg,26,36,filler,PL,PL,Yes,Yes,407,B,Yetkililer  havalimanında  daha  etkili bir yaklaşım benimsediler.,NULL
1765395567,618bcedf122a192c145d0a0bdebb976e,PennController,38,0,critical,NULL,PennController,37,_Trial_,Start,1765395010805,x7r0WCXblZ1Q1Bg,26,36,filler,PL,PL,Yes,Yes,407,B,Yetkililer  havalimanında  daha  etkili bir yaklaşım benimsediler.,NULL
1765395567,618bcedf122a192c145d0a0bdebb976e,PennController,38,0,critical,NULL,Timer,time limit,Start,Start,1765395014468,x7r0WCXblZ1Q1Bg,26,36,filler,PL,PL,Yes,Yes,407,B,Yetkililer  havalimanında  daha  etkili bir yaklaşım benimsediler.,NULL
1765395567,618bcedf122a192c145d0a0bdebb976e,PennController,38,0,critical,NULL,PennController,37,_Trial_,End,1765395014470,x7r0WCXblZ1Q1Bg,26,36,filler,PL,PL,Yes,Yes,407,B,Yetkililer  havalimanında  daha  etkili bir yaklaşım benimsediler.,NULL
1765395567,618bcedf122a192c145d0a0bdebb976e,PennController,38,0,critical,NULL,Key,response,PressedKey,F,1765395014470,x7r0WCXblZ1Q1Bg,26,36,filler,PL,PL,Yes,Yes,407,B,Yetkililer  havalimanında  daha  etkili bir yaklaşım benimsediler.,NULL
1765395567,618bcedf122a192c145d0a0bdebb976e,PennController,38,0,critical,NULL,Timer,time limit,End,End,1765395014470,x7r0WCXblZ1Q1Bg,26,36,filler,PL,PL,Yes,Yes,407,B,Yetkililer  havalimanında  daha  etkili bir yaklaşım benimsediler.,NULL
1765395567,618bcedf122a192c145d0a0bdebb976e,PennController,166,0,critical,NULL,PennController,165,_Header_,End,1765395014472,x7r0WCXblZ1Q1Bg,58,37,filler,SG,SG,No,No,1237,B,Sekreter toplantı notların dikkatle yazmadıklarından sinirlendi.,NULL
1765395567,618bcedf122a192c145d0a0bdebb976e,PennController,166,0,critical,NULL,PennController,165,_Header_,Start,1765395014472,x7r0WCXblZ1Q1Bg,58,37,filler,SG,SG,No,No,1237,B,Sekreter toplantı notların dikkatle yazmadıklarından sinirlendi.,NULL
1765395567,618bcedf122a192c145d0a0bdebb976e,PennController,166,0,critical,NULL,PennController,165,_Trial_,Start,1765395014472,x7r0WCXblZ1Q1Bg,58,37,filler,SG,SG,No,No,1237,B,Sekreter toplantı notların dikkatle yazmadıklarından sinirlendi.,NULL
1765395567,618bcedf122a192c145d0a0bdebb976e,PennController,166,0,critical,NULL,Timer,time limit,Start,Start,1765395017764,x7r0WCXblZ1Q1Bg,58,37,filler,SG,SG,No,No,1237,B,Sekreter toplantı notların dikkatle yazmadıklarından sinirlendi.,NULL
1765395567,618bcedf122a192c145d0a0bdebb976e,PennController,166,0,critical,NULL,Key,response,PressedKey,J,1765395018596,x7r0WCXblZ1Q1Bg,58,37,filler,SG,SG,No,No,1237,B,Sekreter toplantı notların dikkatle yazmadıklarından sinirlendi.,NULL
1765395567,618bcedf122a192c145d0a0bdebb976e,PennController,166,0,critical,NULL,Timer,time limit,End,End,1765395018596,x7r0WCXblZ1Q1Bg,58,37,filler,SG,SG,No,No,1237,B,Sekreter toplantı notların dikkatle yazmadıklarından sinirlendi.,NULL
1765395567,618bcedf122a192c145d0a0bdebb976e,PennController,71,0,critical,NULL,PennController,70,_Header_,End,1765395018597,x7r0WCXblZ1Q1Bg,59,38,filler,SG,SG,No,No,533,B,Ev arkadaşı belki birini kesin görmüşmüş.,NULL
1765395567,618bcedf122a192c145d0a0bdebb976e,PennController,71,0,critical,NULL,PennController,70,_Header_,Start,1765395018597,x7r0WCXblZ1Q1Bg,59,38,filler,SG,SG,No,No,533,B,Ev arkadaşı belki birini kesin görmüşmüş.,NULL
1765395567,618bcedf122a192c145d0a0bdebb976e,PennController,71,0,critical,NULL,PennController,70,_Trial_,Start,1765395018597,x7r0WCXblZ1Q1Bg,59,38,filler,SG,SG,No,No,533,B,Ev arkadaşı belki birini kesin görmüşmüş.,NULL
1765395567,618bcedf122a192c145d0a0bdebb976e,PennController,166,0,critical,NULL,PennController,165,_Trial_,End,1765395018597,x7r0WCXblZ1Q1Bg,58,37,filler,SG,SG,No,No,1237,B,Sekreter toplantı notların dikkatle yazmadıklarından sinirlendi.,NULL
1765395567,618bcedf122a192c145d0a0bdebb976e,PennController,71,0,critical,NULL,Timer,time limit,Start,Start,1765395021911,x7r0WCXblZ1Q1Bg,59,38,filler,SG,SG,No,No,533,B,Ev arkadaşı belki birini kesin görmüşmüş.,NULL
1765395567,618bcedf122a192c145d0a0bdebb976e,PennController,71,0,critical,NULL,Key,response,PressedKey,J,1765395022036,x7r0WCXblZ1Q1Bg,59,38,filler,SG,SG,No,No,533,B,Ev arkadaşı belki birini kesin görmüşmüş.,NULL
1765395567,618bcedf122a192c145d0a0bdebb976e,PennController,71,0,critical,NULL,Timer,time limit,End,End,1765395022036,x7r0WCXblZ1Q1Bg,59,38,filler,SG,SG,No,No,533,B,Ev arkadaşı belki birini kesin görmüşmüş.,NULL
1765395567,618bcedf122a192c145d0a0bdebb976e,PennController,71,0,critical,NULL,PennController,70,_Trial_,End,1765395022037,x7r0WCXblZ1Q1Bg,59,38,filler,SG,SG,No,No,533,B,Ev arkadaşı belki birini kesin görmüşmüş.,NULL
1765395567,618bcedf122a192c145d0a0bdebb976e,PennController,95,0,critical,NULL,PennController,94,_Header_,End,1765395022038,x7r0WCXblZ1Q1Bg,35,39,filler,SG,SG,Yes,Yes,1102,B,Teyzem pazara gitmeden kuzenimi bana emanet eder.,NULL
1765395567,618bcedf122a192c145d0a0bdebb976e,PennController,95,0,critical,NULL,PennController,94,_Header_,Start,1765395022038,x7r0WCXblZ1Q1Bg,35,39,filler,SG,SG,Yes,Yes,1102,B,Teyzem pazara gitmeden kuzenimi bana emanet eder.,NULL
1765395567,618bcedf122a192c145d0a0bdebb976e,PennController,95,0,critical,NULL,PennController,94,_Trial_,Start,1765395022038,x7r0WCXblZ1Q1Bg,35,39,filler,SG,SG,Yes,Yes,1102,B,Teyzem pazara gitmeden kuzenimi bana emanet eder.,NULL
1765395567,618bcedf122a192c145d0a0bdebb976e,PennController,95,0,critical,NULL,Timer,time limit,Start,Start,1765395025723,x7r0WCXblZ1Q1Bg,35,39,filler,SG,SG,Yes,Yes,1102,B,Teyzem pazara gitmeden kuzenimi bana emanet eder.,NULL
1765395567,618bcedf122a192c145d0a0bdebb976e,PennController,95,0,critical,NULL,Key,response,PressedKey,F,1765395026419,x7r0WCXblZ1Q1Bg,35,39,filler,SG,SG,Yes,Yes,1102,B,Teyzem pazara gitmeden kuzenimi bana emanet eder.,NULL
1765395567,618bcedf122a192c145d0a0bdebb976e,PennController,95,0,critical,NULL,PennController,94,_Trial_,End,1765395026420,x7r0WCXblZ1Q1Bg,35,39,filler,SG,SG,Yes,Yes,1102,B,Teyzem pazara gitmeden kuzenimi bana emanet eder.,NULL
1765395567,618bcedf122a192c145d0a0bdebb976e,PennController,95,0,critical,NULL,Timer,time limit,End,End,1765395026420,x7r0WCXblZ1Q1Bg,35,39,filler,SG,SG,Yes,Yes,1102,B,Teyzem pazara gitmeden kuzenimi bana emanet eder.,NULL
1765395567,618bcedf122a192c145d0a0bdebb976e,PennController,141,0,critical,NULL,PennController,140,_Header_,End,1765395026422,x7r0WCXblZ1Q1Bg,33,40,filler,SG,SG,Yes,Yes,423,B,Patron haftaya bana tüm dosyaları düzenlettirecek.,NULL
1765395567,618bcedf122a192c145d0a0bdebb976e,PennController,141,0,critical,NULL,PennController,140,_Header_,Start,1765395026422,x7r0WCXblZ1Q1Bg,33,40,filler,SG,SG,Yes,Yes,423,B,Patron haftaya bana tüm dosyaları düzenlettirecek.,NULL
1765395567,618bcedf122a192c145d0a0bdebb976e,PennController,141,0,critical,NULL,PennController,140,_Trial_,Start,1765395026422,x7r0WCXblZ1Q1Bg,33,40,filler,SG,SG,Yes,Yes,423,B,Patron haftaya bana tüm dosyaları düzenlettirecek.,NULL
1765395567,618bcedf122a192c145d0a0bdebb976e,PennController,141,0,critical,NULL,Timer,time limit,Start,Start,1765395029706,x7r0WCXblZ1Q1Bg,33,40,filler,SG,SG,Yes,Yes,423,B,Patron haftaya bana tüm dosyaları düzenlettirecek.,NULL
1765395567,618bcedf122a192c145d0a0bdebb976e,PennController,141,0,critical,NULL,PennController,140,_Trial_,End,1765395029721,x7r0WCXblZ1Q1Bg,33,40,filler,SG,SG,Yes,Yes,423,B,Patron haftaya bana tüm dosyaları düzenlettirecek.,NULL
1765395567,618bcedf122a192c145d0a0bdebb976e,PennController,141,0,critical,NULL,Key,response,PressedKey,F,1765395029721,x7r0WCXblZ1Q1Bg,33,40,filler,SG,SG,Yes,Yes,423,B,Patron haftaya bana tüm dosyaları düzenlettirecek.,NULL
1765395567,618bcedf122a192c145d0a0bdebb976e,PennController,141,0,critical,NULL,Timer,time limit,End,End,1765395029721,x7r0WCXblZ1Q1Bg,33,40,filler,SG,SG,Yes,Yes,423,B,Patron haftaya bana tüm dosyaları düzenlettirecek.,NULL
1765395567,618bcedf122a192c145d0a0bdebb976e,PennController,17,0,critical,NULL,PennController,16,_Header_,End,1765395029722,x7r0WCXblZ1Q1Bg,5,41,experimental,gen,targetMatch,Yes,Yes,1295,B,Padişahın tarihçileri yolculuk için yavaşça trene bindiler.,NULL
1765395567,618bcedf122a192c145d0a0bdebb976e,PennController,17,0,critical,NULL,PennController,16,_Header_,Start,1765395029722,x7r0WCXblZ1Q1Bg,5,41,experimental,gen,targetMatch,Yes,Yes,1295,B,Padişahın tarihçileri yolculuk için yavaşça trene bindiler.,NULL
1765395567,618bcedf122a192c145d0a0bdebb976e,PennController,17,0,critical,NULL,PennController,16,_Trial_,Start,1765395029722,x7r0WCXblZ1Q1Bg,5,41,experimental,gen,targetMatch,Yes,Yes,1295,B,Padişahın tarihçileri yolculuk için yavaşça trene bindiler.,NULL
1765395567,618bcedf122a192c145d0a0bdebb976e,PennController,17,0,critical,NULL,Timer,time limit,Start,Start,1765395033409,x7r0WCXblZ1Q1Bg,5,41,experimental,gen,targetMatch,Yes,Yes,1295,B,Padişahın tarihçileri yolculuk için yavaşça trene bindiler.,NULL
1765395567,618bcedf122a192c145d0a0bdebb976e,PennController,17,0,critical,NULL,Key,response,PressedKey,F,1765395034297,x7r0WCXblZ1Q1Bg,5,41,experimental,gen,targetMatch,Yes,Yes,1295,B,Padişahın tarihçileri yolculuk için yavaşça trene bindiler.,NULL
1765395567,618bcedf122a192c145d0a0bdebb976e,PennController,17,0,critical,NULL,Timer,time limit,End,End,1765395034298,x7r0WCXblZ1Q1Bg,5,41,experimental,gen,targetMatch,Yes,Yes,1295,B,Padişahın tarihçileri yolculuk için yavaşça trene bindiler.,NULL
1765395567,618bcedf122a192c145d0a0bdebb976e,PennController,17,0,critical,NULL,PennController,16,_Trial_,End,1765395034299,x7r0WCXblZ1Q1Bg,5,41,experimental,gen,targetMatch,Yes,Yes,1295,B,Padişahın tarihçileri yolculuk için yavaşça trene bindiler.,NULL
1765395567,618bcedf122a192c145d0a0bdebb976e,PennController,109,0,critical,NULL,PennController,108,_Header_,End,1765395034300,x7r0WCXblZ1Q1Bg,49,42,filler,SG,SG,Yes,Yes,621,B,Arkadaşım profesörün öğrencisi başarılı olunca çok sevindi.,NULL
1765395567,618bcedf122a192c145d0a0bdebb976e,PennController,109,0,critical,NULL,PennController,108,_Header_,Start,1765395034300,x7r0WCXblZ1Q1Bg,49,42,filler,SG,SG,Yes,Yes,621,B,Arkadaşım profesörün öğrencisi başarılı olunca çok sevindi.,NULL
1765395567,618bcedf122a192c145d0a0bdebb976e,PennController,109,0,critical,NULL,PennController,108,_Trial_,Start,1765395034300,x7r0WCXblZ1Q1Bg,49,42,filler,SG,SG,Yes,Yes,621,B,Arkadaşım profesörün öğrencisi başarılı olunca çok sevindi.,NULL
1765395567,618bcedf122a192c145d0a0bdebb976e,PennController,109,0,critical,NULL,Timer,time limit,Start,Start,1765395037983,x7r0WCXblZ1Q1Bg,49,42,filler,SG,SG,Yes,Yes,621,B,Arkadaşım profesörün öğrencisi başarılı olunca çok sevindi.,NULL
1765395567,618bcedf122a192c145d0a0bdebb976e,PennController,109,0,critical,NULL,Key,response,PressedKey,F,1765395038199,x7r0WCXblZ1Q1Bg,49,42,filler,SG,SG,Yes,Yes,621,B,Arkadaşım profesörün öğrencisi başarılı olunca çok sevindi.,NULL
1765395567,618bcedf122a192c145d0a0bdebb976e,PennController,109,0,critical,NULL,Timer,time limit,End,End,1765395038199,x7r0WCXblZ1Q1Bg,49,42,filler,SG,SG,Yes,Yes,621,B,Arkadaşım profesörün öğrencisi başarılı olunca çok sevindi.,NULL
1765395567,618bcedf122a192c145d0a0bdebb976e,PennController,109,0,critical,NULL,PennController,108,_Trial_,End,1765395038200,x7r0WCXblZ1Q1Bg,49,42,filler,SG,SG,Yes,Yes,621,B,Arkadaşım profesörün öğrencisi başarılı olunca çok sevindi.,NULL
1765395567,618bcedf122a192c145d0a0bdebb976e,PennController,151,0,critical,NULL,PennController,150,_Header_,End,1765395038201,x7r0WCXblZ1Q1Bg,43,43,filler,PL,SG,Yes,Yes,1093,B,Gitaristler tarafından hayranlıkla izlenen müzisyen hayatını kaybetti.,NULL
1765395567,618bcedf122a192c145d0a0bdebb976e,PennController,151,0,critical,NULL,PennController,150,_Header_,Start,1765395038201,x7r0WCXblZ1Q1Bg,43,43,filler,PL,SG,Yes,Yes,1093,B,Gitaristler tarafından hayranlıkla izlenen müzisyen hayatını kaybetti.,NULL
1765395567,618bcedf122a192c145d0a0bdebb976e,PennController,151,0,critical,NULL,PennController,150,_Trial_,Start,1765395038201,x7r0WCXblZ1Q1Bg,43,43,filler,PL,SG,Yes,Yes,1093,B,Gitaristler tarafından hayranlıkla izlenen müzisyen hayatını kaybetti.,NULL
1765395567,618bcedf122a192c145d0a0bdebb976e,PennController,151,0,critical,NULL,Timer,time limit,Start,Start,1765395041865,x7r0WCXblZ1Q1Bg,43,43,filler,PL,SG,Yes,Yes,1093,B,Gitaristler tarafından hayranlıkla izlenen müzisyen hayatını kaybetti.,NULL
1765395567,618bcedf122a192c145d0a0bdebb976e,PennController,151,0,critical,NULL,PennController,150,_Trial_,End,1765395042553,x7r0WCXblZ1Q1Bg,43,43,filler,PL,SG,Yes,Yes,1093,B,Gitaristler tarafından hayranlıkla izlenen müzisyen hayatını kaybetti.,NULL
1765395567,618bcedf122a192c145d0a0bdebb976e,PennController,151,0,critical,NULL,Key,response,PressedKey,F,1765395042553,x7r0WCXblZ1Q1Bg,43,43,filler,PL,SG,Yes,Yes,1093,B,Gitaristler tarafından hayranlıkla izlenen müzisyen hayatını kaybetti.,NULL
1765395567,618bcedf122a192c145d0a0bdebb976e,PennController,151,0,critical,NULL,Timer,time limit,End,End,1765395042553,x7r0WCXblZ1Q1Bg,43,43,filler,PL,SG,Yes,Yes,1093,B,Gitaristler tarafından hayranlıkla izlenen müzisyen hayatını kaybetti.,NULL
1765395567,618bcedf122a192c145d0a0bdebb976e,PennController,26,0,critical,NULL,PennController,25,_Header_,End,1765395042554,x7r0WCXblZ1Q1Bg,14,44,experimental,nom,attractorMatch,No,No,691,B,Sendikacılar koordinatörü yarınki önemli görüşme için hazırlandılar.,NULL
1765395567,618bcedf122a192c145d0a0bdebb976e,PennController,26,0,critical,NULL,PennController,25,_Header_,Start,1765395042554,x7r0WCXblZ1Q1Bg,14,44,experimental,nom,attractorMatch,No,No,691,B,Sendikacılar koordinatörü yarınki önemli görüşme için hazırlandılar.,NULL
1765395567,618bcedf122a192c145d0a0bdebb976e,PennController,26,0,critical,NULL,PennController,25,_Trial_,Start,1765395042554,x7r0WCXblZ1Q1Bg,14,44,experimental,nom,attractorMatch,No,No,691,B,Sendikacılar koordinatörü yarınki önemli görüşme için hazırlandılar.,NULL
1765395567,618bcedf122a192c145d0a0bdebb976e,PennController,26,0,critical,NULL,Timer,time limit,Start,Start,1765395046281,x7r0WCXblZ1Q1Bg,14,44,experimental,nom,attractorMatch,No,No,691,B,Sendikacılar koordinatörü yarınki önemli görüşme için hazırlandılar.,NULL
1765395567,618bcedf122a192c145d0a0bdebb976e,PennController,26,0,critical,NULL,Key,response,PressedKey,J,1765395046564,x7r0WCXblZ1Q1Bg,14,44,experimental,nom,attractorMatch,No,No,691,B,Sendikacılar koordinatörü yarınki önemli görüşme için hazırlandılar.,NULL
1765395567,618bcedf122a192c145d0a0bdebb976e,PennController,26,0,critical,NULL,Timer,time limit,End,End,1765395046564,x7r0WCXblZ1Q1Bg,14,44,experimental,nom,attractorMatch,No,No,691,B,Sendikacılar koordinatörü yarınki önemli görüşme için hazırlandılar.,NULL
1765395567,618bcedf122a192c145d0a0bdebb976e,PennController,26,0,critical,NULL,PennController,25,_Trial_,End,1765395046565,x7r0WCXblZ1Q1Bg,14,44,experimental,nom,attractorMatch,No,No,691,B,Sendikacılar koordinatörü yarınki önemli görüşme için hazırlandılar.,NULL
1765395567,618bcedf122a192c145d0a0bdebb976e,PennController,124,0,critical,NULL,PennController,123,_Header_,End,1765395046566,x7r0WCXblZ1Q1Bg,64,45,filler,SG,SG,No,No,709,B,Stajyer ofis malzemelerini dün  alacak biliyorum.,NULL
1765395567,618bcedf122a192c145d0a0bdebb976e,PennController,124,0,critical,NULL,PennController,123,_Header_,Start,1765395046566,x7r0WCXblZ1Q1Bg,64,45,filler,SG,SG,No,No,709,B,Stajyer ofis malzemelerini dün  alacak biliyorum.,NULL
1765395567,618bcedf122a192c145d0a0bdebb976e,PennController,124,0,critical,NULL,PennController,123,_Trial_,Start,1765395046566,x7r0WCXblZ1Q1Bg,64,45,filler,SG,SG,No,No,709,B,Stajyer ofis malzemelerini dün  alacak biliyorum.,NULL
1765395567,618bcedf122a192c145d0a0bdebb976e,PennController,124,0,critical,NULL,Timer,time limit,Start,Start,1765395049882,x7r0WCXblZ1Q1Bg,64,45,filler,SG,SG,No,No,709,B,Stajyer ofis malzemelerini dün  alacak biliyorum.,NULL
1765395567,618bcedf122a192c145d0a0bdebb976e,PennController,124,0,critical,NULL,Key,response,PressedKey,J,1765395050182,x7r0WCXblZ1Q1Bg,64,45,filler,SG,SG,No,No,709,B,Stajyer ofis malzemelerini dün  alacak biliyorum.,NULL
1765395567,618bcedf122a192c145d0a0bdebb976e,PennController,124,0,critical,NULL,Timer,time limit,End,End,1765395050182,x7r0WCXblZ1Q1Bg,64,45,filler,SG,SG,No,No,709,B,Stajyer ofis malzemelerini dün  alacak biliyorum.,NULL
1765395567,618bcedf122a192c145d0a0bdebb976e,PennController,124,0,critical,NULL,PennController,123,_Trial_,End,1765395050183,x7r0WCXblZ1Q1Bg,64,45,filler,SG,SG,No,No,709,B,Stajyer ofis malzemelerini dün  alacak biliyorum.,NULL
1765395567,618bcedf122a192c145d0a0bdebb976e,PennController,136,0,critical,NULL,PennController,135,_Header_,Start,1765395050185,x7r0WCXblZ1Q1Bg,28,46,filler,PL,PL,Yes,Yes,961,B,Öğrenciler sınavlarda ülke ortalamasının çok üstündeler.,NULL
1765395567,618bcedf122a192c145d0a0bdebb976e,PennController,136,0,critical,NULL,PennController,135,_Trial_,Start,1765395050185,x7r0WCXblZ1Q1Bg,28,46,filler,PL,PL,Yes,Yes,961,B,Öğrenciler sınavlarda ülke ortalamasının çok üstündeler.,NULL
1765395567,618bcedf122a192c145d0a0bdebb976e,PennController,136,0,critical,NULL,PennController,135,_Header_,End,1765395050186,x7r0WCXblZ1Q1Bg,28,46,filler,PL,PL,Yes,Yes,961,B,Öğrenciler sınavlarda ülke ortalamasının çok üstündeler.,NULL
1765395567,618bcedf122a192c145d0a0bdebb976e,PennController,136,0,critical,NULL,Timer,time limit,Start,Start,1765395053474,x7r0WCXblZ1Q1Bg,28,46,filler,PL,PL,Yes,Yes,961,B,Öğrenciler sınavlarda ülke ortalamasının çok üstündeler.,NULL
1765395567,618bcedf122a192c145d0a0bdebb976e,PennController,136,0,critical,NULL,PennController,135,_Trial_,End,1765395054031,x7r0WCXblZ1Q1Bg,28,46,filler,PL,PL,Yes,Yes,961,B,Öğrenciler sınavlarda ülke ortalamasının çok üstündeler.,NULL
1765395567,618bcedf122a192c145d0a0bdebb976e,PennController,136,0,critical,NULL,Key,response,PressedKey,F,1765395054031,x7r0WCXblZ1Q1Bg,28,46,filler,PL,PL,Yes,Yes,961,B,Öğrenciler sınavlarda ülke ortalamasının çok üstündeler.,NULL
1765395567,618bcedf122a192c145d0a0bdebb976e,PennController,136,0,critical,NULL,Timer,time limit,End,End,1765395054031,x7r0WCXblZ1Q1Bg,28,46,filler,PL,PL,Yes,Yes,961,B,Öğrenciler sınavlarda ülke ortalamasının çok üstündeler.,NULL
1765395567,618bcedf122a192c145d0a0bdebb976e,PennController,129,0,critical,NULL,PennController,128,_Header_,End,1765395054032,x7r0WCXblZ1Q1Bg,69,47,filler,PL,SG,No,No,923,B,Müzisyenler gösteri sonrası  eşini hiç selamlar.,NULL
1765395567,618bcedf122a192c145d0a0bdebb976e,PennController,129,0,critical,NULL,PennController,128,_Header_,Start,1765395054032,x7r0WCXblZ1Q1Bg,69,47,filler,PL,SG,No,No,923,B,Müzisyenler gösteri sonrası  eşini hiç selamlar.,NULL
1765395567,618bcedf122a192c145d0a0bdebb976e,PennController,129,0,critical,NULL,PennController,128,_Trial_,Start,1765395054032,x7r0WCXblZ1Q1Bg,69,47,filler,PL,SG,No,No,923,B,Müzisyenler gösteri sonrası  eşini hiç selamlar.,NULL
1765395567,618bcedf122a192c145d0a0bdebb976e,PennController,129,0,critical,NULL,Timer,time limit,Start,Start,1765395057342,x7r0WCXblZ1Q1Bg,69,47,filler,PL,SG,No,No,923,B,Müzisyenler gösteri sonrası  eşini hiç selamlar.,NULL
1765395567,618bcedf122a192c145d0a0bdebb976e,PennController,129,0,critical,NULL,Key,response,PressedKey,J,1765395057859,x7r0WCXblZ1Q1Bg,69,47,filler,PL,SG,No,No,923,B,Müzisyenler gösteri sonrası  eşini hiç selamlar.,NULL
1765395567,618bcedf122a192c145d0a0bdebb976e,PennController,129,0,critical,NULL,PennController,128,_Trial_,End,1765395057860,x7r0WCXblZ1Q1Bg,69,47,filler,PL,SG,No,No,923,B,Müzisyenler gösteri sonrası  eşini hiç selamlar.,NULL
1765395567,618bcedf122a192c145d0a0bdebb976e,PennController,129,0,critical,NULL,Timer,time limit,End,End,1765395057860,x7r0WCXblZ1Q1Bg,69,47,filler,PL,SG,No,No,923,B,Müzisyenler gösteri sonrası  eşini hiç selamlar.,NULL
1765395567,618bcedf122a192c145d0a0bdebb976e,PennController,82,0,critical,NULL,PennController,81,_Header_,End,1765395057862,x7r0WCXblZ1Q1Bg,70,48,filler,PL,SG,No,No,408,B,Ziyaretçiler hiçbir gün  mahkumun izni var sandı.,NULL
1765395567,618bcedf122a192c145d0a0bdebb976e,PennController,82,0,critical,NULL,PennController,81,_Header_,Start,1765395057862,x7r0WCXblZ1Q1Bg,70,48,filler,PL,SG,No,No,408,B,Ziyaretçiler hiçbir gün  mahkumun izni var sandı.,NULL
1765395567,618bcedf122a192c145d0a0bdebb976e,PennController,82,0,critical,NULL,PennController,81,_Trial_,Start,1765395057862,x7r0WCXblZ1Q1Bg,70,48,filler,PL,SG,No,No,408,B,Ziyaretçiler hiçbir gün  mahkumun izni var sandı.,NULL
1765395567,618bcedf122a192c145d0a0bdebb976e,PennController,82,0,critical,NULL,Timer,time limit,Start,Start,1765395061558,x7r0WCXblZ1Q1Bg,70,48,filler,PL,SG,No,No,408,B,Ziyaretçiler hiçbir gün  mahkumun izni var sandı.,NULL
1765395567,618bcedf122a192c145d0a0bdebb976e,PennController,82,0,critical,NULL,PennController,81,_Trial_,End,1765395061559,x7r0WCXblZ1Q1Bg,70,48,filler,PL,SG,No,No,408,B,Ziyaretçiler hiçbir gün  mahkumun izni var sandı.,NULL
1765395567,618bcedf122a192c145d0a0bdebb976e,PennController,82,0,critical,NULL,Key,response,PressedKey,J,1765395061559,x7r0WCXblZ1Q1Bg,70,48,filler,PL,SG,No,No,408,B,Ziyaretçiler hiçbir gün  mahkumun izni var sandı.,NULL
1765395567,618bcedf122a192c145d0a0bdebb976e,PennController,82,0,critical,NULL,Timer,time limit,End,End,1765395061559,x7r0WCXblZ1Q1Bg,70,48,filler,PL,SG,No,No,408,B,Ziyaretçiler hiçbir gün  mahkumun izni var sandı.,NULL
1765395567,618bcedf122a192c145d0a0bdebb976e,PennController,74,0,critical,NULL,PennController,73,_Header_,End,1765395061560,x7r0WCXblZ1Q1Bg,62,49,filler,SG,SG,No,No,1239,B,Kadın beğenmediği mücevherlerde hırsızlık olunca ağlaşıldı.,NULL
1765395567,618bcedf122a192c145d0a0bdebb976e,PennController,74,0,critical,NULL,PennController,73,_Header_,Start,1765395061560,x7r0WCXblZ1Q1Bg,62,49,filler,SG,SG,No,No,1239,B,Kadın beğenmediği mücevherlerde hırsızlık olunca ağlaşıldı.,NULL
1765395567,618bcedf122a192c145d0a0bdebb976e,PennController,74,0,critical,NULL,PennController,73,_Trial_,Start,1765395061560,x7r0WCXblZ1Q1Bg,62,49,filler,SG,SG,No,No,1239,B,Kadın beğenmediği mücevherlerde hırsızlık olunca ağlaşıldı.,NULL
1765395567,618bcedf122a192c145d0a0bdebb976e,PennController,74,0,critical,NULL,Timer,time limit,Start,Start,1765395064854,x7r0WCXblZ1Q1Bg,62,49,filler,SG,SG,No,No,1239,B,Kadın beğenmediği mücevherlerde hırsızlık olunca ağlaşıldı.,NULL
1765395567,618bcedf122a192c145d0a0bdebb976e,PennController,74,0,critical,NULL,Key,response,PressedKey,J,1765395065688,x7r0WCXblZ1Q1Bg,62,49,filler,SG,SG,No,No,1239,B,Kadın beğenmediği mücevherlerde hırsızlık olunca ağlaşıldı.,NULL
1765395567,618bcedf122a192c145d0a0bdebb976e,PennController,74,0,critical,NULL,Timer,time limit,End,End,1765395065688,x7r0WCXblZ1Q1Bg,62,49,filler,SG,SG,No,No,1239,B,Kadın beğenmediği mücevherlerde hırsızlık olunca ağlaşıldı.,NULL
1765395567,618bcedf122a192c145d0a0bdebb976e,PennController,74,0,critical,NULL,PennController,73,_Trial_,End,1765395065689,x7r0WCXblZ1Q1Bg,62,49,filler,SG,SG,No,No,1239,B,Kadın beğenmediği mücevherlerde hırsızlık olunca ağlaşıldı.,NULL
1765395567,618bcedf122a192c145d0a0bdebb976e,PennController,110,0,critical,NULL,PennController,109,_Header_,End,1765395065691,x7r0WCXblZ1Q1Bg,50,50,filler,SG,SG,Yes,Yes,827,B,Garson patronların yemeğini düşürünce yenisini getirdi.,NULL
1765395567,618bcedf122a192c145d0a0bdebb976e,PennController,110,0,critical,NULL,PennController,109,_Header_,Start,1765395065691,x7r0WCXblZ1Q1Bg,50,50,filler,SG,SG,Yes,Yes,827,B,Garson patronların yemeğini düşürünce yenisini getirdi.,NULL
1765395567,618bcedf122a192c145d0a0bdebb976e,PennController,110,0,critical,NULL,PennController,109,_Trial_,Start,1765395065691,x7r0WCXblZ1Q1Bg,50,50,filler,SG,SG,Yes,Yes,827,B,Garson patronların yemeğini düşürünce yenisini getirdi.,NULL
1765395567,618bcedf122a192c145d0a0bdebb976e,PennController,110,0,critical,NULL,Timer,time limit,Start,Start,1765395068968,x7r0WCXblZ1Q1Bg,50,50,filler,SG,SG,Yes,Yes,827,B,Garson patronların yemeğini düşürünce yenisini getirdi.,NULL
1765395567,618bcedf122a192c145d0a0bdebb976e,PennController,110,0,critical,NULL,Key,response,PressedKey,F,1765395069390,x7r0WCXblZ1Q1Bg,50,50,filler,SG,SG,Yes,Yes,827,B,Garson patronların yemeğini düşürünce yenisini getirdi.,NULL
1765395567,618bcedf122a192c145d0a0bdebb976e,PennController,110,0,critical,NULL,Timer,time limit,End,End,1765395069390,x7r0WCXblZ1Q1Bg,50,50,filler,SG,SG,Yes,Yes,827,B,Garson patronların yemeğini düşürünce yenisini getirdi.,NULL
1765395567,618bcedf122a192c145d0a0bdebb976e,PennController,110,0,critical,NULL,PennController,109,_Trial_,End,1765395069391,x7r0WCXblZ1Q1Bg,50,50,filler,SG,SG,Yes,Yes,827,B,Garson patronların yemeğini düşürünce yenisini getirdi.,NULL
1765395567,618bcedf122a192c145d0a0bdebb976e,PennController,100,0,critical,NULL,PennController,99,_Header_,End,1765395069392,x7r0WCXblZ1Q1Bg,40,51,filler,SG,SG,Yes,No,661,B,Tiyatrocu yağmurda ıslanan saçını kurulamaya girişti.,NULL
1765395567,618bcedf122a192c145d0a0bdebb976e,PennController,100,0,critical,NULL,PennController,99,_Header_,Start,1765395069392,x7r0WCXblZ1Q1Bg,40,51,filler,SG,SG,Yes,No,661,B,Tiyatrocu yağmurda ıslanan saçını kurulamaya girişti.,NULL
1765395567,618bcedf122a192c145d0a0bdebb976e,PennController,100,0,critical,NULL,PennController,99,_Trial_,Start,1765395069392,x7r0WCXblZ1Q1Bg,40,51,filler,SG,SG,Yes,No,661,B,Tiyatrocu yağmurda ıslanan saçını kurulamaya girişti.,NULL
1765395567,618bcedf122a192c145d0a0bdebb976e,PennController,100,0,critical,NULL,Timer,time limit,Start,Start,1765395072687,x7r0WCXblZ1Q1Bg,40,51,filler,SG,SG,Yes,No,661,B,Tiyatrocu yağmurda ıslanan saçını kurulamaya girişti.,NULL
1765395567,618bcedf122a192c145d0a0bdebb976e,PennController,100,0,critical,NULL,Key,response,PressedKey,J,1765395072941,x7r0WCXblZ1Q1Bg,40,51,filler,SG,SG,Yes,No,661,B,Tiyatrocu yağmurda ıslanan saçını kurulamaya girişti.,NULL
1765395567,618bcedf122a192c145d0a0bdebb976e,PennController,100,0,critical,NULL,Timer,time limit,End,End,1765395072941,x7r0WCXblZ1Q1Bg,40,51,filler,SG,SG,Yes,No,661,B,Tiyatrocu yağmurda ıslanan saçını kurulamaya girişti.,NULL
1765395567,618bcedf122a192c145d0a0bdebb976e,PennController,100,0,critical,NULL,PennController,99,_Trial_,End,1765395072942,x7r0WCXblZ1Q1Bg,40,51,filler,SG,SG,Yes,No,661,B,Tiyatrocu yağmurda ıslanan saçını kurulamaya girişti.,NULL
1765395567,618bcedf122a192c145d0a0bdebb976e,PennController,70,0,critical,NULL,PennController,69,_Header_,End,1765395072944,x7r0WCXblZ1Q1Bg,58,52,filler,SG,SG,No,No,722,B,Sekreter toplantı notların dikkatle yazmadıklarından sinirlendi.,NULL
1765395567,618bcedf122a192c145d0a0bdebb976e,PennController,70,0,critical,NULL,PennController,69,_Header_,Start,1765395072944,x7r0WCXblZ1Q1Bg,58,52,filler,SG,SG,No,No,722,B,Sekreter toplantı notların dikkatle yazmadıklarından sinirlendi.,NULL
1765395567,618bcedf122a192c145d0a0bdebb976e,PennController,70,0,critical,NULL,PennController,69,_Trial_,Start,1765395072944,x7r0WCXblZ1Q1Bg,58,52,filler,SG,SG,No,No,722,B,Sekreter toplantı notların dikkatle yazmadıklarından sinirlendi.,NULL
1765395567,618bcedf122a192c145d0a0bdebb976e,PennController,70,0,critical,NULL,Timer,time limit,Start,Start,1765395076235,x7r0WCXblZ1Q1Bg,58,52,filler,SG,SG,No,No,722,B,Sekreter toplantı notların dikkatle yazmadıklarından sinirlendi.,NULL
1765395567,618bcedf122a192c145d0a0bdebb976e,PennController,70,0,critical,NULL,Key,response,PressedKey,J,1765395076550,x7r0WCXblZ1Q1Bg,58,52,filler,SG,SG,No,No,722,B,Sekreter toplantı notların dikkatle yazmadıklarından sinirlendi.,NULL
1765395567,618bcedf122a192c145d0a0bdebb976e,PennController,70,0,critical,NULL,Timer,time limit,End,End,1765395076550,x7r0WCXblZ1Q1Bg,58,52,filler,SG,SG,No,No,722,B,Sekreter toplantı notların dikkatle yazmadıklarından sinirlendi.,NULL
1765395567,618bcedf122a192c145d0a0bdebb976e,PennController,65,0,critical,NULL,PennController,64,_Header_,Start,1765395076551,x7r0WCXblZ1Q1Bg,53,53,filler,SG,SG,Yes,Yes,604,B,Sürücü trafik ışıkları birden bozulursa panikler.,NULL
1765395567,618bcedf122a192c145d0a0bdebb976e,PennController,65,0,critical,NULL,PennController,64,_Trial_,Start,1765395076551,x7r0WCXblZ1Q1Bg,53,53,filler,SG,SG,Yes,Yes,604,B,Sürücü trafik ışıkları birden bozulursa panikler.,NULL
1765395567,618bcedf122a192c145d0a0bdebb976e,PennController,70,0,critical,NULL,PennController,69,_Trial_,End,1765395076551,x7r0WCXblZ1Q1Bg,58,52,filler,SG,SG,No,No,722,B,Sekreter toplantı notların dikkatle yazmadıklarından sinirlendi.,NULL
1765395567,618bcedf122a192c145d0a0bdebb976e,PennController,65,0,critical,NULL,PennController,64,_Header_,End,1765395076552,x7r0WCXblZ1Q1Bg,53,53,filler,SG,SG,Yes,Yes,604,B,Sürücü trafik ışıkları birden bozulursa panikler.,NULL
1765395567,618bcedf122a192c145d0a0bdebb976e,PennController,65,0,critical,NULL,Timer,time limit,Start,Start,1765395079814,x7r0WCXblZ1Q1Bg,53,53,filler,SG,SG,Yes,Yes,604,B,Sürücü trafik ışıkları birden bozulursa panikler.,NULL
1765395567,618bcedf122a192c145d0a0bdebb976e,PennController,65,0,critical,NULL,Key,response,PressedKey,F,1765395080010,x7r0WCXblZ1Q1Bg,53,53,filler,SG,SG,Yes,Yes,604,B,Sürücü trafik ışıkları birden bozulursa panikler.,NULL
1765395567,618bcedf122a192c145d0a0bdebb976e,PennController,65,0,critical,NULL,PennController,64,_Trial_,End,1765395080011,x7r0WCXblZ1Q1Bg,53,53,filler,SG,SG,Yes,Yes,604,B,Sürücü trafik ışıkları birden bozulursa panikler.,NULL
1765395567,618bcedf122a192c145d0a0bdebb976e,PennController,65,0,critical,NULL,Timer,time limit,End,End,1765395080011,x7r0WCXblZ1Q1Bg,53,53,filler,SG,SG,Yes,Yes,604,B,Sürücü trafik ışıkları birden bozulursa panikler.,NULL
1765395567,618bcedf122a192c145d0a0bdebb976e,PennController,128,0,critical,NULL,PennController,127,_Header_,End,1765395080012,x7r0WCXblZ1Q1Bg,68,54,filler,PL,SG,No,No,461,B,Gazeteciler izlediğimiz haberi dün  paylaşmayacak bence.,NULL
